# scan = 59
# date = 9/5/2024
# time = 12:11:41 PM
# proposal = 32905
# experiment = Effects of electric field on phonon dispersion and lifetimes of poled PMN-30PT
# experiment_number = 812
# command = scan h 1.5 k 0.65 l 0 e 15 0 0.25 preset mcu 30
# builtin_command = scan h 1.5 k 0.65 l 0 e 15 0 0.25 preset mcu 30
# users = George Yumnam, Michael Manley, Puspa Upreti, Raphael Hermann, SHAOFEI WANG
# local_contact = Songxue Chi
# scan_title = h1.5 k0.65 l0 scans
# monochromator = PG002
# analyzer = Pg002
# sense = -+-
# collimation = 48-40-40-120
# samplename = PMN-30PT
# sampletype = crystal
# samplemosaic = 30.000000
# latticeconstants = 4.023634,4.023634,4.023634,90.000000,90.000000,90.000000
# ubmatrix = -0.008055,-0.248252,-0.008588,-0.248328,0.007840,0.006285,-0.006007,0.008785,-0.248304
# mode = 0
# plane_normal = 0.034555,-0.025290,0.999083
# ubconf = UB04Sep2024_115522AM.ini
# preset_type = normal 
# preset_channel = mcu
# preset_value = 30.000000
# def_x = e
# def_y = detector
# col_headers = 
#   Pt.          h          k          l          e       time   detector    monitor        mcu focal_length         m1         m2   mcrystal       marc     mtrans     mfocus       ampl         dc       freq     output       temp     temp_2         s1         s2        sgl        sgu        bbb        bbl        bbr        bbt        bab        bal        bar        bat        stl        stu         a1         a2          q         ei         ef   ampl_out output_state        vti     sample
      1     1.5000     0.6499    -0.0000    15.0018     27.694     44.000 194311.000     30.000    46.9938   -20.0773   -28.6390   120.0962    -0.1480    -3.0001   -49.8518     0.0000     0.0000     0.0000     1.0000   300.0000   300.0000   -19.3436    42.3239    -1.9790    -1.4485    20.0000    20.0000    10.0000    20.0000    26.0000    10.0000    16.0000    20.0000    -0.0005     0.0005   159.4164   -41.1662     2.5528    29.7018    14.7000     2.0000     1.0000   300.0270     0.000
      2     1.5000     0.6500    -0.0000    14.7495     27.322     43.000 194311.000     30.000    47.1929   -20.0773   -28.7640   120.0962    -0.1480    -3.0001   -49.6254     0.0000     0.0000     0.0000     1.0000   300.0000   300.0000   -19.6079    42.5710    -1.9790    -1.4485    20.0000    20.0000    10.0000    20.0000    26.0000    10.0000    16.0000    20.0000    -0.0005     0.0005   159.4164   -41.1662     2.5528    29.4495    14.7000     2.0000     1.0000   300.0150     0.000
      3     1.5000     0.6500    -0.0000    14.4998     26.970     31.000 194311.000     30.000    47.3944   -20.0773   -28.8894   120.0962    -0.1480    -3.0001   -49.3982     0.0000     0.0000     0.0000     1.0000   300.0000   300.0000   -19.8732    42.8141    -1.9790    -1.4485    20.0000    20.0000    10.0000    20.0000    26.0000    10.0000    16.0000    20.0000    -0.0005     0.0005   159.4164   -41.1662     2.5528    29.1998    14.7000     2.0000     1.0000   300.0050     0.000
      4     1.5000     0.6500    -0.0000    14.2506     26.554     35.000 194311.000     30.000    47.5986   -20.0773   -29.0161   120.0962    -0.1480    -3.0001   -49.1702     0.0000     0.0000     0.0000     1.0000   300.0000   300.0000   -20.1375    43.0566    -1.9790    -1.4485    20.0000    20.0000    10.0000    20.0000    26.0000    10.0000    16.0000    20.0000    -0.0005     0.0005   159.4164   -41.1662     2.5528    28.9507    14.7000     2.0000     1.0000   299.9960     0.000
      5     1.5000     0.6500    -0.0000    13.9994     26.247     37.000 194311.000     30.000    47.8055   -20.0773   -29.1457   120.0962    -0.1480    -3.0001   -48.9414     0.0000     0.0000     0.0000     1.0000   300.0000   300.0000   -20.4026    43.3023    -1.9790    -1.4485    20.0000    20.0000    10.0000    20.0000    26.0000    10.0000    16.0000    20.0000    -0.0005     0.0005   159.4164   -41.1662     2.5528    28.6994    14.7000     2.0000     1.0000   300.0230     0.000
      6     1.5000     0.6500    -0.0000    13.7505     25.959     35.000 194311.000     30.000    48.0151   -20.0773   -29.2757   120.0962    -0.1480    -3.0001   -48.7117     0.0000     0.0000     0.0000     1.0000   300.0000   300.0000   -20.6672    43.5452    -1.9790    -1.4485    20.0000    20.0000    10.0000    20.0000    26.0000    10.0000    16.0000    20.0000    -0.0005     0.0005   159.4164   -41.1662     2.5529    28.4505    14.7000     2.0000     1.0000   299.9210     0.000
      7     1.5001     0.6500    -0.0000    13.5002     25.729     35.000 194311.000     30.000    48.2274   -20.0773   -29.4083   120.0962    -0.1480    -3.0001   -48.4811     0.0000     0.0000     0.0000     1.0000   300.0000   300.0000   -20.9324    43.7911    -1.9790    -1.4485    20.0000    20.0000    10.0000    20.0000    26.0000    10.0000    16.0000    20.0000    -0.0005     0.0005   159.4164   -41.1662     2.5530    28.2002    14.7000     2.0000     1.0000   300.0200     0.000
      8     1.5000     0.6500    -0.0000    13.2496     25.641     28.000 194311.000     30.000    48.4427   -20.0773   -29.5428   120.0962    -0.1480    -3.0001   -48.2497     0.0000     0.0000     0.0000     1.0000   300.0000   300.0000   -21.1973    44.0320    -1.9790    -1.4485    20.0000    20.0000    10.0000    20.0000    26.0000    10.0000    16.0000    20.0000    -0.0005     0.0005   159.4164   -41.1662     2.5528    27.9496    14.7000     2.0000     1.0000   299.9340     0.000
      9     1.5000     0.6500    -0.0000    13.0000     25.998     32.000 194311.000     30.000    48.6608   -20.0773   -29.6786   120.0962    -0.1480    -3.0001   -48.0174     0.0000     0.0000     0.0000     1.0000   300.0000   300.0000   -21.4623    44.2747    -1.9790    -1.4485    20.0000    20.0000    10.0000    20.0000    26.0000    10.0000    16.0000    20.0000    -0.0005     0.0005   159.4164   -41.1662     2.5528    27.7000    14.7000     2.0000     1.0000   300.0120     0.000
     10     1.5000     0.6500    -0.0000    12.7500     26.168     27.000 194311.000     30.000    48.8819   -20.0773   -29.8166   120.0962    -0.1480    -3.0001   -47.7842     0.0000     0.0000     0.0000     1.0000   300.0000   300.0000   -21.7276    44.5178    -1.9790    -1.4485    20.0000    20.0000    10.0000    20.0000    26.0000    10.0000    16.0000    20.0000    -0.0005     0.0005   159.4164   -41.1662     2.5528    27.4500    14.7000     2.0000     1.0000   299.9380     0.000
     11     1.5000     0.6500    -0.0000    12.4999     26.710     34.000 194311.000     30.000    49.1060   -20.0773   -29.9566   120.0962    -0.1480    -3.0001   -47.5501     0.0000     0.0000     0.0000     1.0000   300.0000   300.0000   -21.9935    44.7621    -1.9790    -1.4485    20.0000    20.0000    10.0000    20.0000    26.0000    10.0000    16.0000    20.0000    -0.0005     0.0005   159.4164   -41.1662     2.5529    27.1999    14.7000     2.0000     1.0000   300.0080     0.000
     12     1.5000     0.6500    -0.0000    12.2504     26.874     26.000 194311.000     30.000    49.3332   -20.0773   -30.0982   120.0962    -0.1480    -3.0001   -47.3151     0.0000     0.0000     0.0000     1.0000   300.0000   300.0000   -22.2586    45.0050    -1.9790    -1.4485    20.0000    20.0000    10.0000    20.0000    26.0000    10.0000    16.0000    20.0000    -0.0005     0.0005   159.4164   -41.1662     2.5529    26.9504    14.7000     2.0000     1.0000   300.0080     0.000
     13     1.5000     0.6500    -0.0000    11.9996     27.163     22.000 194311.000     30.000    49.5636   -20.0773   -30.2426   120.0962    -0.1480    -3.0001   -47.0791     0.0000     0.0000     0.0000     1.0000   300.0000   300.0000   -22.5244    45.2464    -1.9790    -1.4485    20.0000    20.0000    10.0000    20.0000    26.0000    10.0000    16.0000    20.0000    -0.0005     0.0005   159.4164   -41.1662     2.5527    26.6996    14.7000     2.0000     1.0000   300.0150     0.000
     14     1.5000     0.6500    -0.0000    11.7500     27.164     27.000 194311.000     30.000    49.7973   -20.0773   -30.3884   120.0962    -0.1480    -3.0001   -46.8422     0.0000     0.0000     0.0000     1.0000   300.0000   300.0000   -22.7906    45.4903    -1.9790    -1.4485    20.0000    20.0000    10.0000    20.0000    26.0000    10.0000    16.0000    20.0000    -0.0005     0.0005   159.4164   -41.1662     2.5528    26.4500    14.7000     2.0000     1.0000   300.0250     0.000
     15     1.5000     0.6500    -0.0000    11.5002     27.033     35.000 194311.000     30.000    50.0343   -20.0773   -30.5364   120.0962    -0.1480    -3.0001   -46.6044     0.0000     0.0000     0.0000     1.0000   300.0000   300.0000   -23.0566    45.7346    -1.9790    -1.4485    20.0000    20.0000    10.0000    20.0000    26.0000    10.0000    16.0000    20.0000    -0.0005     0.0005   159.4164   -41.1662     2.5529    26.2002    14.7000     2.0000     1.0000   300.0130     0.000
     16     1.5001     0.6500    -0.0000    11.2501     26.822     35.000 194311.000     30.000    50.2748   -20.0773   -30.6868   120.0962    -0.1480    -3.0001   -46.3655     0.0000     0.0000     0.0000     1.0000   300.0000   300.0000   -23.3236    45.9788    -1.9790    -1.4485    20.0000    20.0000    10.0000    20.0000    26.0000    10.0000    16.0000    20.0000    -0.0005     0.0005   159.4164   -41.1662     2.5529    25.9501    14.7000     2.0000     1.0000   299.9890     0.000
     17     1.5000     0.6500    -0.0000    10.9999     26.508     31.000 194311.000     30.000    50.5187   -20.0773   -30.8395   120.0962    -0.1480    -3.0001   -46.1257     0.0000     0.0000     0.0000     1.0000   300.0000   300.0000   -23.5901    46.2222    -1.9790    -1.4485    20.0000    20.0000    10.0000    20.0000    26.0000    10.0000    16.0000    20.0000    -0.0005     0.0005   159.4164   -41.1662     2.5529    25.6999    14.7000     2.0000     1.0000   299.9950     0.000
     18     1.5000     0.6500    -0.0000    10.7501     26.406     31.000 194311.000     30.000    50.7662   -20.0773   -30.9943   120.0962    -0.1480    -3.0001   -45.8849     0.0000     0.0000     0.0000     1.0000   300.0000   300.0000   -23.8575    46.4623    -1.9790    -1.4485    20.0000    20.0000    10.0000    20.0000    26.0000    10.0000    16.0000    20.0000    -0.0005     0.0005   159.4164   -41.1662     2.5528    25.4501    14.7000     2.0000     1.0000   300.0070     0.000
     19     1.5000     0.6500    -0.0000    10.5002     26.461     32.000 194311.000     30.000    51.0174   -20.0773   -31.1515   120.0962    -0.1480    -3.0001   -45.6430     0.0000     0.0000     0.0000     1.0000   300.0000   300.0000   -24.1250    46.7074    -1.9790    -1.4485    20.0000    20.0000    10.0000    20.0000    26.0000    10.0000    16.0000    20.0000    -0.0005     0.0005   159.4164   -41.1662     2.5528    25.2002    14.7000     2.0000     1.0000   299.9990     0.000
     20     1.5000     0.6500    -0.0000    10.2503     26.352     32.000 194311.000     30.000    51.2724   -20.0773   -31.3110   120.0962    -0.1480    -3.0001   -45.4002     0.0000     0.0000     0.0000     1.0000   300.0000   300.0000   -24.3934    46.9517    -1.9790    -1.4485    20.0000    20.0000    10.0000    20.0000    26.0000    10.0000    16.0000    20.0000    -0.0005     0.0005   159.4164   -41.1662     2.5529    24.9504    14.7000     2.0000     1.0000   300.0210     0.000
     21     1.5001     0.6500    -0.0000    10.0001     26.751     27.000 194311.000     30.000    51.5312   -20.0773   -31.4733   120.0962    -0.1480    -3.0001   -45.1562     0.0000     0.0000     0.0000     1.0000   300.0000   300.0000   -24.6612    47.1977    -1.9790    -1.4485    20.0000    20.0000    10.0000    20.0000    26.0000    10.0000    16.0000    20.0000    -0.0005     0.0005   159.4164   -41.1662     2.5530    24.7001    14.7000     2.0000     1.0000   299.9260     0.000
     22     1.5000     0.6500    -0.0000     9.7498     27.174     34.000 194311.000     30.000    51.7940   -20.0773   -31.6382   120.0962    -0.1480    -3.0001   -44.9112     0.0000     0.0000     0.0000     1.0000   300.0000   300.0000   -24.9301    47.4377    -1.9790    -1.4485    20.0000    20.0000    10.0000    20.0000    26.0000    10.0000    16.0000    20.0000    -0.0005     0.0005   159.4164   -41.1662     2.5528    24.4498    14.7000     2.0000     1.0000   300.0090     0.000
     23     1.5000     0.6500    -0.0000     9.4998     27.526     29.000 194311.000     30.000    52.0609   -20.0773   -31.8055   120.0962    -0.1480    -3.0001   -44.6652     0.0000     0.0000     0.0000     1.0000   300.0000   300.0000   -25.1995    47.6820    -1.9790    -1.4485    20.0000    20.0000    10.0000    20.0000    26.0000    10.0000    16.0000    20.0000    -0.0005     0.0005   159.4164   -41.1662     2.5528    24.1998    14.7000     2.0000     1.0000   299.9420     0.000
     24     1.5001     0.6500    -0.0000     9.2502     27.871     20.000 194311.000     30.000    52.3319   -20.0773   -31.9752   120.0962    -0.1480    -3.0001   -44.4180     0.0000     0.0000     0.0000     1.0000   300.0000   300.0000   -25.4691    47.9279    -1.9790    -1.4485    20.0000    20.0000    10.0000    20.0000    26.0000    10.0000    16.0000    20.0000    -0.0005     0.0005   159.4164   -41.1662     2.5529    23.9503    14.7000     2.0000     1.0000   300.0230     0.000
     25     1.5001     0.6500    -0.0000     9.0000     27.557     18.000 194311.000     30.000    52.6071   -20.0773   -32.1481   120.0962    -0.1480    -3.0001   -44.1697     0.0000     0.0000     0.0000     1.0000   300.0000   300.0000   -25.7394    48.1725    -1.9790    -1.4485    20.0000    20.0000    10.0000    20.0000    26.0000    10.0000    16.0000    20.0000    -0.0005     0.0005   159.4164   -41.1662     2.5529    23.7000    14.7000     2.0000     1.0000   300.0050     0.000
     26     1.5001     0.6500    -0.0000     8.7500     27.113     25.000 194311.000     30.000    52.8868   -20.0773   -32.3237   120.0962    -0.1480    -3.0001   -43.9203     0.0000     0.0000     0.0000     1.0000   300.0000   300.0000   -26.0099    48.4178    -1.9790    -1.4485    20.0000    20.0000    10.0000    20.0000    26.0000    10.0000    16.0000    20.0000    -0.0005     0.0005   159.4164   -41.1662     2.5529    23.4500    14.7000     2.0000     1.0000   300.0140     0.000
     27     1.5000     0.6500    -0.0000     8.5001     26.254     31.000 194311.000     30.000    53.1710   -20.0773   -32.5021   120.0962    -0.1480    -3.0001   -43.6697     0.0000     0.0000     0.0000     1.0000   300.0000   300.0000   -26.2814    48.6590    -1.9790    -1.4485    20.0000    20.0000    10.0000    20.0000    26.0000    10.0000    16.0000    20.0000    -0.0005     0.0005   159.4164   -41.1662     2.5528    23.2001    14.7000     2.0000     1.0000   300.0040     0.000
     28     1.5000     0.6500    -0.0000     8.2498     25.432     31.000 194311.000     30.000    53.4598   -20.0773   -32.6838   120.0962    -0.1480    -3.0001   -43.4180     0.0000     0.0000     0.0000     1.0000   300.0000   300.0000   -26.5535    48.9054    -1.9790    -1.4485    20.0000    20.0000    10.0000    20.0000    26.0000    10.0000    16.0000    20.0000    -0.0005     0.0005   159.4164   -41.1662     2.5528    22.9498    14.7000     2.0000     1.0000   300.0120     0.000
     29     1.5000     0.6500    -0.0000     8.0000     24.721     30.000 194311.000     30.000    53.7534   -20.0773   -32.8682   120.0962    -0.1480    -3.0001   -43.1651     0.0000     0.0000     0.0000     1.0000   300.0000   300.0000   -26.8255    49.1521    -1.9790    -1.4485    20.0000    20.0000    10.0000    20.0000    26.0000    10.0000    16.0000    20.0000    -0.0005     0.0005   159.4164   -41.1662     2.5529    22.7000    14.7000     2.0000     1.0000   300.0340     0.000
     30     1.5000     0.6500    -0.0000     7.7502     24.280     31.000 194311.000     30.000    54.0519   -20.0773   -33.0558   120.0962    -0.1480    -3.0001   -42.9109     0.0000     0.0000     0.0000     1.0000   300.0000   300.0000   -27.0991    49.3975    -1.9790    -1.4485    20.0000    20.0000    10.0000    20.0000    26.0000    10.0000    16.0000    20.0000    -0.0005     0.0005   159.4164   -41.1662     2.5529    22.4502    14.7000     2.0000     1.0000   299.9980     0.000
     31     1.5000     0.6500    -0.0000     7.4998     24.125     37.000 194311.000     30.000    54.3554   -20.0773   -33.2471   120.0962    -0.1480    -3.0001   -42.6556     0.0000     0.0000     0.0000     1.0000   300.0000   300.0000   -27.3725    49.6412    -1.9790    -1.4485    20.0000    20.0000    10.0000    20.0000    26.0000    10.0000    16.0000    20.0000    -0.0005     0.0005   159.4164   -41.1662     2.5528    22.1998    14.7000     2.0000     1.0000   300.0080     0.000
     32     1.5000     0.6500    -0.0000     7.2504     24.090     29.000 194311.000     30.000    54.6640   -20.0773   -33.4410   120.0962    -0.1480    -3.0001   -42.3989     0.0000     0.0000     0.0000     1.0000   300.0000   300.0000   -27.6471    49.8879    -1.9790    -1.4485    20.0000    20.0000    10.0000    20.0000    26.0000    10.0000    16.0000    20.0000    -0.0005     0.0005   159.4164   -41.1662     2.5528    21.9504    14.7000     2.0000     1.0000   299.9990     0.000
     33     1.5000     0.6500    -0.0000     6.9996     24.046     30.000 194311.000     30.000    54.9780   -20.0773   -33.6394   120.0962    -0.1480    -3.0001   -42.1410     0.0000     0.0000     0.0000     1.0000   300.0000   300.0000   -27.9225    50.1355    -1.9790    -1.4485    20.0000    20.0000    10.0000    20.0000    26.0000    10.0000    16.0000    20.0000    -0.0005     0.0005   159.4164   -41.1662     2.5528    21.6996    14.7000     2.0000     1.0000   300.0300     0.000
     34     1.5001     0.6500    -0.0000     6.7501     24.173     35.000 194311.000     30.000    55.2975   -20.0773   -33.8403   120.0962    -0.1480    -3.0001   -41.8818     0.0000     0.0000     0.0000     1.0000   300.0000   300.0000   -28.1986    50.3865    -1.9790    -1.4485    20.0000    20.0000    10.0000    20.0000    26.0000    10.0000    16.0000    20.0000    -0.0005     0.0005   159.4164   -41.1662     2.5530    21.4501    14.7000     2.0000     1.0000   300.0010     0.000
     35     1.5000     0.6500    -0.0000     6.4999     24.431     43.000 194311.000     30.000    55.6225   -20.0773   -34.0455   120.0962    -0.1480    -3.0001   -41.6214     0.0000     0.0000     0.0000     1.0000   300.0000   300.0000   -28.4751    50.6296    -1.9790    -1.4485    20.0000    20.0000    10.0000    20.0000    26.0000    10.0000    16.0000    20.0000    -0.0005     0.0005   159.4164   -41.1662     2.5528    21.1999    14.7000     2.0000     1.0000   300.0050     0.000
     36     1.5000     0.6500    -0.0000     6.2501     24.658     34.000 194311.000     30.000    55.9535   -20.0773   -34.2541   120.0962    -0.1480    -3.0001   -41.3595     0.0000     0.0000     0.0000     1.0000   300.0000   300.0000   -28.7530    50.8759    -1.9790    -1.4485    20.0000    20.0000    10.0000    20.0000    26.0000    10.0000    16.0000    20.0000    -0.0005     0.0005   159.4164   -41.1662     2.5528    20.9501    14.7000     2.0000     1.0000   300.0170     0.000
     37     1.5000     0.6500    -0.0000     6.0000     25.060     29.000 194311.000     30.000    56.2903   -20.0773   -34.4667   120.0962    -0.1480    -3.0001   -41.0963     0.0000     0.0000     0.0000     1.0000   300.0000   300.0000   -29.0312    51.1269    -1.9790    -1.4485    20.0000    20.0000    10.0000    20.0000    26.0000    10.0000    16.0000    20.0000    -0.0005     0.0005   159.4164   -41.1662     2.5529    20.7001    14.7000     2.0000     1.0000   300.0130     0.000
     38     1.5001     0.6500    -0.0000     5.7500     25.521     39.000 194311.000     30.000    56.6333   -20.0773   -34.6835   120.0962    -0.1480    -3.0001   -40.8317     0.0000     0.0000     0.0000     1.0000   300.0000   300.0000   -29.3108    51.3759    -1.9790    -1.4485    20.0000    20.0000    10.0000    20.0000    26.0000    10.0000    16.0000    20.0000    -0.0005     0.0005   159.4164   -41.1662     2.5529    20.4500    14.7000     2.0000     1.0000   299.9940     0.000
     39     1.5000     0.6500    -0.0000     5.4999     25.775     31.000 194311.000     30.000    56.9827   -20.0773   -34.9044   120.0962    -0.1480    -3.0001   -40.5656     0.0000     0.0000     0.0000     1.0000   300.0000   300.0000   -29.5911    51.6247    -1.9790    -1.4485    20.0000    20.0000    10.0000    20.0000    26.0000    10.0000    16.0000    20.0000    -0.0005     0.0005   159.4164   -41.1662     2.5529    20.1999    14.7000     2.0000     1.0000   300.0180     0.000
     40     1.5000     0.6500    -0.0000     5.2502     26.236     47.000 194311.000     30.000    57.3387   -20.0773   -35.1292   120.0962    -0.1480    -3.0001   -40.2982     0.0000     0.0000     0.0000     1.0000   300.0000   300.0000   -29.8723    51.8727    -1.9790    -1.4485    20.0000    20.0000    10.0000    20.0000    26.0000    10.0000    16.0000    20.0000    -0.0005     0.0005   159.4164   -41.1662     2.5528    19.9502    14.7000     2.0000     1.0000   300.0050     0.000
     41     1.5000     0.6500    -0.0000     5.0001     26.579     31.000 194311.000     30.000    57.7013   -20.0773   -35.3588   120.0962    -0.1480    -3.0001   -40.0292     0.0000     0.0000     0.0000     1.0000   300.0000   300.0000   -30.1546    52.1243    -1.9790    -1.4485    20.0000    20.0000    10.0000    20.0000    26.0000    10.0000    16.0000    20.0000    -0.0005     0.0005   159.4164   -41.1662     2.5529    19.7001    14.7000     2.0000     1.0000   300.0160     0.000
     42     1.5001     0.6500    -0.0000     4.7501     26.729     39.000 194311.000     30.000    58.0709   -20.0773   -35.5929   120.0962    -0.1480    -3.0001   -39.7588     0.0000     0.0000     0.0000     1.0000   300.0000   300.0000   -30.4378    52.3767    -1.9790    -1.4485    20.0000    20.0000    10.0000    20.0000    26.0000    10.0000    16.0000    20.0000    -0.0005     0.0005   159.4164   -41.1662     2.5530    19.4501    14.7000     2.0000     1.0000   300.0060     0.000
     43     1.5000     0.6500    -0.0000     4.4998     26.801     35.000 194311.000     30.000    58.4478   -20.0773   -35.8319   120.0962    -0.1480    -3.0001   -39.4868     0.0000     0.0000     0.0000     1.0000   300.0000   300.0000   -30.7222    52.6265    -1.9790    -1.4485    20.0000    20.0000    10.0000    20.0000    26.0000    10.0000    16.0000    20.0000    -0.0005     0.0005   159.4164   -41.1662     2.5529    19.1999    14.7000     2.0000     1.0000   300.0210     0.000
     44     1.5000     0.6500    -0.0000     4.2500     27.015     36.000 194311.000     30.000    58.8321   -20.0773   -36.0754   120.0962    -0.1480    -3.0001   -39.2133     0.0000     0.0000     0.0000     1.0000   300.0000   300.0000   -31.0078    52.8757    -1.9790    -1.4485    20.0000    20.0000    10.0000    20.0000    26.0000    10.0000    16.0000    20.0000    -0.0005     0.0005   159.4164   -41.1662     2.5528    18.9500    14.7000     2.0000     1.0000   299.9240     0.000
     45     1.5000     0.6500    -0.0000     3.9999     27.231     30.000 194311.000     30.000    59.2240   -20.0773   -36.3242   120.0962    -0.1480    -3.0001   -38.9382     0.0000     0.0000     0.0000     1.0000   300.0000   300.0000   -31.2946    53.1298    -1.9790    -1.4485    20.0000    20.0000    10.0000    20.0000    26.0000    10.0000    16.0000    20.0000    -0.0005     0.0005   159.4164   -41.1662     2.5528    18.6999    14.7000     2.0000     1.0000   300.0160     0.000
     46     1.5001     0.6500    -0.0000     3.7501     27.724     26.000 194311.000     30.000    59.6240   -20.0773   -36.5779   120.0962    -0.1480    -3.0001   -38.6614     0.0000     0.0000     0.0000     1.0000   300.0000   300.0000   -31.5821    53.3851    -1.9790    -1.4485    20.0000    20.0000    10.0000    20.0000    26.0000    10.0000    16.0000    20.0000    -0.0005     0.0005   159.4164   -41.1662     2.5530    18.4501    14.7000     2.0000     1.0000   299.9300     0.000
     47     1.5000     0.6500    -0.0000     3.5000     28.439     27.000 194311.000     30.000    60.0321   -20.0773   -36.8373   120.0962    -0.1480    -3.0001   -38.3830     0.0000     0.0000     0.0000     1.0000   300.0000   300.0000   -31.8715    53.6357    -1.9790    -1.4485    20.0000    20.0000    10.0000    20.0000    26.0000    10.0000    16.0000    20.0000    -0.0005     0.0005   159.4164   -41.1662     2.5528    18.2000    14.7000     2.0000     1.0000   300.0130     0.000
     48     1.5000     0.6500    -0.0000     3.2499     29.693     18.000 194311.000     30.000    60.4487   -20.0773   -37.1024   120.0962    -0.1480    -3.0001   -38.1029     0.0000     0.0000     0.0000     1.0000   300.0000   300.0000   -32.1617    53.8897    -1.9790    -1.4485    20.0000    20.0000    10.0000    20.0000    26.0000    10.0000    16.0000    20.0000    -0.0005     0.0005   159.4164   -41.1662     2.5528    17.9499    14.7000     2.0000     1.0000   300.0130     0.000
     49     1.5000     0.6500    -0.0000     3.0003     30.081     25.000 194311.000     30.000    60.8740   -20.0773   -37.3726   120.0962    -0.1480    -3.0001   -37.8211     0.0000     0.0000     0.0000     1.0000   300.0000   300.0000   -32.4539    54.1458    -1.9790    -1.4485    20.0000    20.0000    10.0000    20.0000    26.0000    10.0000    16.0000    20.0000    -0.0005     0.0005   159.4164   -41.1662     2.5529    17.7003    14.7000     2.0000     1.0000   300.0020     0.000
     50     1.5000     0.6500    -0.0000     2.7499     30.202     26.000 194311.000     30.000    61.3086   -20.0773   -37.6499   120.0962    -0.1480    -3.0001   -37.5375     0.0000     0.0000     0.0000     1.0000   300.0000   300.0000   -32.7463    54.4019    -1.9790    -1.4485    20.0000    20.0000    10.0000    20.0000    26.0000    10.0000    16.0000    20.0000    -0.0005     0.0005   159.4164   -41.1662     2.5529    17.4499    14.7000     2.0000     1.0000   300.0170     0.000
     51     1.5000     0.6500    -0.0000     2.5000     29.588     27.000 194311.000     30.000    61.7525   -20.0773   -37.9327   120.0962    -0.1480    -3.0001   -37.2522     0.0000     0.0000     0.0000     1.0000   300.0000   300.0000   -33.0412    54.6566    -1.9790    -1.4485    20.0000    20.0000    10.0000    20.0000    26.0000    10.0000    16.0000    20.0000    -0.0005     0.0005   159.4164   -41.1662     2.5528    17.2000    14.7000     2.0000     1.0000   299.9890     0.000
     52     1.5000     0.6500    -0.0000     2.2499     29.873     24.000 194311.000     30.000    62.2063   -20.0773   -38.2223   120.0962    -0.1480    -3.0001   -36.9649     0.0000     0.0000     0.0000     1.0000   300.0000   300.0000   -33.3372    54.9159    -1.9790    -1.4485    20.0000    20.0000    10.0000    20.0000    26.0000    10.0000    16.0000    20.0000    -0.0005     0.0005   159.4164   -41.1662     2.5529    16.9499    14.7000     2.0000     1.0000   300.0160     0.000
     53     1.5001     0.6500    -0.0000     2.0000     30.189     22.000 194311.000     30.000    62.6702   -20.0773   -38.5185   120.0962    -0.1480    -3.0001   -36.6758     0.0000     0.0000     0.0000     1.0000   300.0000   300.0000   -33.6349    55.1755    -1.9790    -1.4485    20.0000    20.0000    10.0000    20.0000    26.0000    10.0000    16.0000    20.0000    -0.0005     0.0005   159.4164   -41.1662     2.5529    16.7000    14.7000     2.0000     1.0000   300.0020     0.000
     54     1.5000     0.6500    -0.0000     1.7500     30.665     22.000 194311.000     30.000    63.1445   -20.0773   -38.8217   120.0962    -0.1480    -3.0001   -36.3848     0.0000     0.0000     0.0000     1.0000   300.0000   300.0000   -33.9342    55.4316    -1.9790    -1.4485    20.0000    20.0000    10.0000    20.0000    26.0000    10.0000    16.0000    20.0000    -0.0005     0.0005   159.4164   -41.1662     2.5528    16.4500    14.7000     2.0000     1.0000   300.0170     0.000
     55     1.5000     0.6500    -0.0000     1.5000     30.806     24.000 194311.000     30.000    63.6299   -20.0773   -39.1322   120.0962    -0.1480    -3.0001   -36.0918     0.0000     0.0000     0.0000     1.0000   300.0000   300.0000   -34.2346    55.6918    -1.9790    -1.4485    20.0000    20.0000    10.0000    20.0000    26.0000    10.0000    16.0000    20.0000    -0.0005     0.0005   159.4164   -41.1662     2.5528    16.2000    14.7000     2.0000     1.0000   300.0080     0.000
     56     1.5000     0.6500    -0.0000     1.2500     32.042     34.000 194311.000     30.000    64.1267   -20.0773   -39.4504   120.0962    -0.1480    -3.0001   -35.7968     0.0000     0.0000     0.0000     1.0000   300.0000   300.0000   -34.5371    55.9525    -1.9790    -1.4485    20.0000    20.0000    10.0000    20.0000    26.0000    10.0000    16.0000    20.0000    -0.0005     0.0005   159.4164   -41.1662     2.5528    15.9500    14.7000     2.0000     1.0000   300.0130     0.000
     57     1.5000     0.6500    -0.0000     1.0000     33.599     75.000 194311.000     30.000    64.6352   -20.0773   -39.7763   120.0962    -0.1480    -3.0001   -35.4997     0.0000     0.0000     0.0000     1.0000   300.0000   300.0000   -34.8417    56.2153    -1.9790    -1.4485    20.0000    20.0000    10.0000    20.0000    26.0000    10.0000    16.0000    20.0000    -0.0005     0.0005   159.4164   -41.1662     2.5529    15.7000    14.7000     2.0000     1.0000   300.0080     0.000
     58     1.5000     0.6500    -0.0000     0.7500     34.116    114.000 194311.000     30.000    65.1560   -20.0773   -40.1105   120.0962    -0.1480    -3.0001   -35.2005     0.0000     0.0000     0.0000     1.0000   300.0000   300.0000   -35.1478    56.4751    -1.9790    -1.4485    20.0000    20.0000    10.0000    20.0000    26.0000    10.0000    16.0000    20.0000    -0.0005     0.0005   159.4164   -41.1662     2.5528    15.4500    14.7000     2.0000     1.0000   300.0250     0.000
     59     1.5000     0.6500    -0.0000     0.5000     33.530    275.000 194311.000     30.000    65.6897   -20.0773   -40.4534   120.0962    -0.1480    -3.0001   -34.8991     0.0000     0.0000     0.0000     1.0000   300.0000   300.0000   -35.4560    56.7405    -1.9790    -1.4485    20.0000    20.0000    10.0000    20.0000    26.0000    10.0000    16.0000    20.0000    -0.0005     0.0005   159.4164   -41.1662     2.5529    15.2000    14.7000     2.0000     1.0000   300.0090     0.000
     60     1.5001     0.6500    -0.0000     0.2499     31.708    447.000 194311.000     30.000    66.2366   -20.0773   -40.8052   120.0962    -0.1480    -3.0001   -34.5956     0.0000     0.0000     0.0000     1.0000   300.0000   300.0000   -35.7659    57.0060    -1.9790    -1.4485    20.0000    20.0000    10.0000    20.0000    26.0000    10.0000    16.0000    20.0000    -0.0005     0.0005   159.4164   -41.1662     2.5529    14.9499    14.7000     2.0000     1.0000   300.0070     0.000
     61     1.5000     0.6500    -0.0000     0.0001     30.225    647.000 194311.000     30.000    66.7975   -20.0773   -41.1661   120.0962    -0.1480    -3.0001   -34.2897     0.0000     0.0000     0.0000     1.0000   300.0000   300.0000   -36.0783    57.2684    -1.9790    -1.4485    20.0000    20.0000    10.0000    20.0000    26.0000    10.0000    16.0000    20.0000    -0.0005     0.0005   159.4164   -41.1662     2.5528    14.7001    14.7000     2.0000     1.0000   300.0100     0.000
# Sum of Counts = 3286
# Center of Mass = 4.518748+/-0.141458
# Full Width Half-Maximum = 9.983224+/-0.166931
# 12:46:19 PM  9/5/2024   scan completed.
