# scan = 97
# date = 9/6/2024
# time = 10:35:09 AM
# proposal = 32905
# experiment = Effects of electric field on phonon dispersion and lifetimes of poled PMN-30PT
# experiment_number = 812
# command = scan h 2.5 k 0.5 l 0 e 15 0 0.25 preset mcu 30
# builtin_command = scan h 2.5 k 0.5 l 0 e 15 0 0.25 preset mcu 30
# users = George Yumnam, Michael Manley, Puspa Upreti, Raphael Hermann, SHAOFEI WANG
# local_contact = Songxue Chi
# scan_title = (2.5,0.5,0) M point scan at 250 V
# monochromator = PG002
# analyzer = Pg002
# sense = -+-
# collimation = 48-40-40-120
# samplename = PMN-30PT
# sampletype = crystal
# samplemosaic = 30.000000
# latticeconstants = 4.023634,4.023634,4.023634,90.000000,90.000000,90.000000
# ubmatrix = -0.008055,-0.248252,-0.008588,-0.248328,0.007840,0.006285,-0.006007,0.008785,-0.248304
# mode = 0
# plane_normal = 0.034555,-0.025290,0.999083
# ubconf = UB04Sep2024_115522AM.ini
# preset_type = normal 
# preset_channel = mcu
# preset_value = 30.000000
# def_x = e
# def_y = detector
# col_headers = 
#   Pt.          h          k          l          e       time   detector    monitor        mcu focal_length         m1         m2   mcrystal       marc     mtrans     mfocus       ampl         dc       freq     output       temp     temp_2         s1         s2        sgl        sgu        bbb        bbl        bbr        bbt        bab        bal        bar        bat        stl        stu         a1         a2          q         ei         ef   ampl_out output_state        vti     sample
      1     2.5001     0.5000    -0.0001    15.0017     27.596     37.000 194311.000     30.000    46.9938   -20.0773   -28.6390   120.0962    -0.1480    -3.0001   -49.8518     0.0000   250.0000     0.0000     1.0000   300.0000   300.0000   -26.8416    73.9474    -1.9790    -1.4485    20.0000    20.0000    10.0000    20.0000    26.0000    10.0000    16.0000    20.0000    -0.0005     0.0005   159.4164   -41.1662     3.9814    29.7017    14.7000     2.0000     1.0000   300.0340     0.000
      2     2.5000     0.5000    -0.0001    14.7496     27.129     29.000 194311.000     30.000    47.1929   -20.0773   -28.7640   120.0962    -0.1480    -3.0001   -49.6254     0.0000   250.0000     0.0000     1.0000   300.0000   300.0000   -26.9105    74.2336    -1.9790    -1.4485    20.0000    20.0000    10.0000    20.0000    26.0000    10.0000    16.0000    20.0000    -0.0005     0.0005   159.4164   -41.1662     3.9812    29.4496    14.7000     2.0000     1.0000   300.0230     0.000
      3     2.5000     0.5000    -0.0001    14.4998     26.937     27.000 194311.000     30.000    47.3944   -20.0773   -28.8894   120.0962    -0.1480    -3.0001   -49.3982     0.0000   250.0000     0.0000     1.0000   300.0000   300.0000   -26.9791    74.5247    -1.9790    -1.4485    20.0000    20.0000    10.0000    20.0000    26.0000    10.0000    16.0000    20.0000    -0.0005     0.0005   159.4164   -41.1662     3.9812    29.1998    14.7000     2.0000     1.0000   299.9410     0.000
      4     2.5001     0.5000    -0.0001    14.2506     26.498     31.000 194311.000     30.000    47.5986   -20.0773   -29.0161   120.0962    -0.1480    -3.0001   -49.1702     0.0000   250.0000     0.0000     1.0000   300.0000   300.0000   -27.0461    74.8178    -1.9790    -1.4485    20.0000    20.0000    10.0000    20.0000    26.0000    10.0000    16.0000    20.0000    -0.0005     0.0005   159.4164   -41.1662     3.9813    28.9507    14.7000     2.0000     1.0000   300.0030     0.000
      5     2.5000     0.5000    -0.0001    13.9994     26.079     35.000 194311.000     30.000    47.8055   -20.0773   -29.1456   120.0962    -0.1480    -3.0001   -48.9414     0.0000   250.0000     0.0000     1.0000   300.0000   300.0000   -27.1133    75.1105    -1.9790    -1.4485    20.0000    20.0000    10.0000    20.0000    26.0000    10.0000    16.0000    20.0000    -0.0005     0.0005   159.4164   -41.1662     3.9812    28.6995    14.7000     2.0000     1.0000   300.0310     0.000
      6     2.5001     0.5000    -0.0001    13.7503     25.770     23.000 194311.000     30.000    48.0151   -20.0773   -29.2758   120.0962    -0.1480    -3.0001   -48.7117     0.0000   250.0000     0.0000     1.0000   300.0000   300.0000   -27.1792    75.4076    -1.9790    -1.4485    20.0000    20.0000    10.0000    20.0000    26.0000    10.0000    16.0000    20.0000    -0.0005     0.0005   159.4164   -41.1662     3.9814    28.4503    14.7000     2.0000     1.0000   300.0050     0.000
      7     2.5000     0.5000    -0.0001    13.5004     25.688     42.000 194311.000     30.000    48.2274   -20.0773   -29.4082   120.0962    -0.1480    -3.0001   -48.4811     0.0000   250.0000     0.0000     1.0000   300.0000   300.0000   -27.2443    75.7025    -1.9790    -1.4485    20.0000    20.0000    10.0000    20.0000    26.0000    10.0000    16.0000    20.0000    -0.0005     0.0005   159.4164   -41.1662     3.9813    28.2004    14.7000     2.0000     1.0000   300.0050     0.000
      8     2.5001     0.5000    -0.0001    13.2496     25.564     38.000 194311.000     30.000    48.4427   -20.0773   -29.5428   120.0962    -0.1480    -3.0001   -48.2497     0.0000   250.0000     0.0000     1.0000   300.0000   300.0000   -27.3085    76.0042    -1.9790    -1.4485    20.0000    20.0000    10.0000    20.0000    26.0000    10.0000    16.0000    20.0000    -0.0005     0.0005   159.4164   -41.1662     3.9813    27.9496    14.7000     2.0000     1.0000   300.0150     0.000
      9     2.5000     0.5000    -0.0001    13.0000     25.800     27.000 194311.000     30.000    48.6608   -20.0773   -29.6786   120.0962    -0.1480    -3.0001   -48.0174     0.0000   250.0000     0.0000     1.0000   300.0000   300.0000   -27.3720    76.3037    -1.9790    -1.4485    20.0000    20.0000    10.0000    20.0000    26.0000    10.0000    16.0000    20.0000    -0.0005     0.0005   159.4164   -41.1662     3.9813    27.7000    14.7000     2.0000     1.0000   300.0180     0.000
     10     2.5000     0.5000    -0.0001    12.7499     26.092     38.000 194311.000     30.000    48.8819   -20.0773   -29.8167   120.0962    -0.1480    -3.0001   -47.7842     0.0000   250.0000     0.0000     1.0000   300.0000   300.0000   -27.4346    76.6076    -1.9790    -1.4485    20.0000    20.0000    10.0000    20.0000    26.0000    10.0000    16.0000    20.0000    -0.0005     0.0005   159.4164   -41.1662     3.9813    27.4499    14.7000     2.0000     1.0000   300.0010     0.000
     11     2.5000     0.5000    -0.0001    12.4999     26.560     37.000 194311.000     30.000    49.1060   -20.0773   -29.9566   120.0962    -0.1480    -3.0001   -47.5501     0.0000   250.0000     0.0000     1.0000   300.0000   300.0000   -27.4962    76.9127    -1.9790    -1.4485    20.0000    20.0000    10.0000    20.0000    26.0000    10.0000    16.0000    20.0000    -0.0005     0.0005   159.4164   -41.1662     3.9813    27.1999    14.7000     2.0000     1.0000   300.0140     0.000
     12     2.5000     0.5000    -0.0001    12.2504     26.877     28.000 194311.000     30.000    49.3332   -20.0773   -30.0982   120.0962    -0.1480    -3.0001   -47.3151     0.0000   250.0000     0.0000     1.0000   300.0000   300.0000   -27.5569    77.2200    -1.9790    -1.4485    20.0000    20.0000    10.0000    20.0000    26.0000    10.0000    16.0000    20.0000    -0.0005     0.0005   159.4164   -41.1662     3.9813    26.9504    14.7000     2.0000     1.0000   299.8720     0.000
     13     2.5000     0.5000    -0.0001    11.9996     27.043     35.000 194311.000     30.000    49.5636   -20.0773   -30.2426   120.0962    -0.1480    -3.0001   -47.0791     0.0000   250.0000     0.0000     1.0000   300.0000   300.0000   -27.6169    77.5294    -1.9790    -1.4485    20.0000    20.0000    10.0000    20.0000    26.0000    10.0000    16.0000    20.0000    -0.0005     0.0005   159.4164   -41.1662     3.9812    26.6996    14.7000     2.0000     1.0000   300.0070     0.000
     14     2.5000     0.5000    -0.0001    11.7500     27.090     40.000 194311.000     30.000    49.7973   -20.0773   -30.3884   120.0962    -0.1480    -3.0001   -46.8422     0.0000   250.0000     0.0000     1.0000   300.0000   300.0000   -27.6758    77.8412    -1.9790    -1.4485    20.0000    20.0000    10.0000    20.0000    26.0000    10.0000    16.0000    20.0000    -0.0005     0.0005   159.4164   -41.1662     3.9812    26.4500    14.7000     2.0000     1.0000   300.0170     0.000
     15     2.5000     0.5000    -0.0001    11.5001     27.070     48.000 194311.000     30.000    50.0343   -20.0773   -30.5364   120.0962    -0.1480    -3.0001   -46.6044     0.0000   250.0000     0.0000     1.0000   300.0000   300.0000   -27.7336    78.1568    -1.9790    -1.4485    20.0000    20.0000    10.0000    20.0000    26.0000    10.0000    16.0000    20.0000    -0.0005     0.0005   159.4164   -41.1662     3.9813    26.2001    14.7000     2.0000     1.0000   300.0010     0.000
     16     2.5000     0.5000    -0.0001    11.2501     26.923     42.000 194311.000     30.000    50.2748   -20.0773   -30.6868   120.0962    -0.1480    -3.0001   -46.3655     0.0000   250.0000     0.0000     1.0000   300.0000   300.0000   -27.7900    78.4710    -1.9790    -1.4485    20.0000    20.0000    10.0000    20.0000    26.0000    10.0000    16.0000    20.0000    -0.0005     0.0005   159.4164   -41.1662     3.9812    25.9501    14.7000     2.0000     1.0000   300.0190     0.000
     17     2.5001     0.5000    -0.0001    10.9999     26.567     50.000 194311.000     30.000    50.5187   -20.0773   -30.8395   120.0962    -0.1480    -3.0001   -46.1257     0.0000   250.0000     0.0000     1.0000   300.0000   300.0000   -27.8461    78.7942    -1.9790    -1.4485    20.0000    20.0000    10.0000    20.0000    26.0000    10.0000    16.0000    20.0000    -0.0005     0.0005   159.4164   -41.1662     3.9813    25.6999    14.7000     2.0000     1.0000   299.9860     0.000
     18     2.5000     0.5000    -0.0001    10.7502     26.330     51.000 194311.000     30.000    50.7662   -20.0773   -30.9942   120.0962    -0.1480    -3.0001   -45.8849     0.0000   250.0000     0.0000     1.0000   300.0000   300.0000   -27.9008    79.1137    -1.9790    -1.4485    20.0000    20.0000    10.0000    20.0000    26.0000    10.0000    16.0000    20.0000    -0.0005     0.0005   159.4164   -41.1662     3.9813    25.4502    14.7000     2.0000     1.0000   300.0200     0.000
     19     2.5000     0.5000    -0.0001    10.5001     26.402     66.000 194311.000     30.000    51.0174   -20.0773   -31.1515   120.0962    -0.1480    -3.0001   -45.6430     0.0000   250.0000     0.0000     1.0000   300.0000   300.0000   -27.9545    79.4357    -1.9790    -1.4485    20.0000    20.0000    10.0000    20.0000    26.0000    10.0000    16.0000    20.0000    -0.0005     0.0005   159.4164   -41.1662     3.9812    25.2001    14.7000     2.0000     1.0000   300.0050     0.000
     20     2.5000     0.5000    -0.0001    10.2504     26.478     60.000 194311.000     30.000    51.2724   -20.0773   -31.3110   120.0962    -0.1480    -3.0001   -45.4002     0.0000   250.0000     0.0000     1.0000   300.0000   300.0000   -28.0064    79.7649    -1.9790    -1.4485    20.0000    20.0000    10.0000    20.0000    26.0000    10.0000    16.0000    20.0000    -0.0005     0.0005   159.4164   -41.1662     3.9813    24.9504    14.7000     2.0000     1.0000   300.0240     0.000
     21     2.5000     0.5000    -0.0001     9.9999     26.834     73.000 194311.000     30.000    51.5312   -20.0773   -31.4734   120.0962    -0.1480    -3.0001   -45.1562     0.0000   250.0000     0.0000     1.0000   300.0000   300.0000   -28.0580    80.0932    -1.9790    -1.4485    20.0000    20.0000    10.0000    20.0000    26.0000    10.0000    16.0000    20.0000    -0.0005     0.0005   159.4164   -41.1662     3.9812    24.6999    14.7000     2.0000     1.0000   299.9430     0.000
     22     2.5000     0.5000    -0.0001     9.7499     27.100     71.000 194311.000     30.000    51.7940   -20.0773   -31.6382   120.0962    -0.1480    -3.0001   -44.9112     0.0000   250.0000     0.0000     1.0000   300.0000   300.0000   -28.1079    80.4253    -1.9790    -1.4485    20.0000    20.0000    10.0000    20.0000    26.0000    10.0000    16.0000    20.0000    -0.0005     0.0005   159.4164   -41.1662     3.9812    24.4499    14.7000     2.0000     1.0000   300.0030     0.000
     23     2.5000     0.5000    -0.0001     9.4998     27.527     64.000 194311.000     30.000    52.0609   -20.0773   -31.8055   120.0962    -0.1480    -3.0001   -44.6652     0.0000   250.0000     0.0000     1.0000   300.0000   300.0000   -28.1569    80.7617    -1.9790    -1.4485    20.0000    20.0000    10.0000    20.0000    26.0000    10.0000    16.0000    20.0000    -0.0005     0.0005   159.4164   -41.1662     3.9812    24.1998    14.7000     2.0000     1.0000   300.0130     0.000
     24     2.5000     0.5000    -0.0001     9.2502     27.632     86.000 194311.000     30.000    52.3319   -20.0773   -31.9753   120.0962    -0.1480    -3.0001   -44.4180     0.0000   250.0000     0.0000     1.0000   300.0000   300.0000   -28.2044    81.0993    -1.9790    -1.4485    20.0000    20.0000    10.0000    20.0000    26.0000    10.0000    16.0000    20.0000    -0.0005     0.0005   159.4164   -41.1662     3.9813    23.9502    14.7000     2.0000     1.0000   300.0260     0.000
     25     2.5000     0.5000    -0.0001     9.0000     27.601     83.000 194311.000     30.000    52.6071   -20.0773   -32.1481   120.0962    -0.1480    -3.0001   -44.1697     0.0000   250.0000     0.0000     1.0000   300.0000   300.0000   -28.2503    81.4395    -1.9790    -1.4485    20.0000    20.0000    10.0000    20.0000    26.0000    10.0000    16.0000    20.0000    -0.0005     0.0005   159.4164   -41.1662     3.9812    23.7000    14.7000     2.0000     1.0000   300.0030     0.000
     26     2.5000     0.5000    -0.0001     8.7501     27.048     76.000 194311.000     30.000    52.8868   -20.0773   -32.3237   120.0962    -0.1480    -3.0001   -43.9203     0.0000   250.0000     0.0000     1.0000   300.0000   300.0000   -28.2952    81.7855    -1.9790    -1.4485    20.0000    20.0000    10.0000    20.0000    26.0000    10.0000    16.0000    20.0000    -0.0005     0.0005   159.4164   -41.1662     3.9813    23.4501    14.7000     2.0000     1.0000   299.9970     0.000
     27     2.5000     0.5000    -0.0001     8.5000     26.260     72.000 194311.000     30.000    53.1710   -20.0773   -32.5022   120.0962    -0.1480    -3.0001   -43.6697     0.0000   250.0000     0.0000     1.0000   300.0000   300.0000   -28.3388    82.1324    -1.9790    -1.4485    20.0000    20.0000    10.0000    20.0000    26.0000    10.0000    16.0000    20.0000    -0.0005     0.0005   159.4164   -41.1662     3.9813    23.2000    14.7000     2.0000     1.0000   300.0130     0.000
     28     2.5000     0.5000    -0.0001     8.2499     25.367     84.000 194311.000     30.000    53.4598   -20.0773   -32.6837   120.0962    -0.1480    -3.0001   -43.4180     0.0000   250.0000     0.0000     1.0000   300.0000   300.0000   -28.3803    82.4810    -1.9790    -1.4485    20.0000    20.0000    10.0000    20.0000    26.0000    10.0000    16.0000    20.0000    -0.0005     0.0005   159.4164   -41.1662     3.9812    22.9499    14.7000     2.0000     1.0000   299.9330     0.000
     29     2.5000     0.5000    -0.0001     7.9999     24.518     73.000 194311.000     30.000    53.7534   -20.0773   -32.8683   120.0962    -0.1480    -3.0001   -43.1651     0.0000   250.0000     0.0000     1.0000   300.0000   300.0000   -28.4210    82.8369    -1.9790    -1.4485    20.0000    20.0000    10.0000    20.0000    26.0000    10.0000    16.0000    20.0000    -0.0005     0.0005   159.4164   -41.1662     3.9813    22.6999    14.7000     2.0000     1.0000   300.0290     0.000
     30     2.5001     0.5000    -0.0001     7.7502     24.260     67.000 194311.000     30.000    54.0519   -20.0773   -33.0558   120.0962    -0.1480    -3.0001   -42.9109     0.0000   250.0000     0.0000     1.0000   300.0000   300.0000   -28.4597    83.1954    -1.9790    -1.4485    20.0000    20.0000    10.0000    20.0000    26.0000    10.0000    16.0000    20.0000    -0.0005     0.0005   159.4164   -41.1662     3.9813    22.4502    14.7000     2.0000     1.0000   299.9960     0.000
     31     2.5000     0.5000    -0.0001     7.4998     24.117     82.000 194311.000     30.000    54.3554   -20.0773   -33.2471   120.0962    -0.1480    -3.0001   -42.6556     0.0000   250.0000     0.0000     1.0000   300.0000   300.0000   -28.4971    83.5542    -1.9790    -1.4485    20.0000    20.0000    10.0000    20.0000    26.0000    10.0000    16.0000    20.0000    -0.0005     0.0005   159.4164   -41.1662     3.9812    22.1998    14.7000     2.0000     1.0000   300.0100     0.000
     32     2.5000     0.5000    -0.0001     7.2503     24.077     81.000 194311.000     30.000    54.6640   -20.0773   -33.4411   120.0962    -0.1480    -3.0001   -42.3989     0.0000   250.0000     0.0000     1.0000   300.0000   300.0000   -28.5326    83.9190    -1.9790    -1.4485    20.0000    20.0000    10.0000    20.0000    26.0000    10.0000    16.0000    20.0000    -0.0005     0.0005   159.4164   -41.1662     3.9813    21.9503    14.7000     2.0000     1.0000   300.0140     0.000
     33     2.5000     0.5000    -0.0001     6.9998     24.163     89.000 194311.000     30.000    54.9780   -20.0773   -33.6392   120.0962    -0.1480    -3.0001   -42.1410     0.0000   250.0000     0.0000     1.0000   300.0000   300.0000   -28.5666    84.2859    -1.9790    -1.4485    20.0000    20.0000    10.0000    20.0000    26.0000    10.0000    16.0000    20.0000    -0.0005     0.0005   159.4164   -41.1662     3.9812    21.6998    14.7000     2.0000     1.0000   300.0020     0.000
     34     2.5000     0.5000    -0.0001     6.7502     24.118     69.000 194311.000     30.000    55.2975   -20.0773   -33.8402   120.0962    -0.1480    -3.0001   -41.8818     0.0000   250.0000     0.0000     1.0000   300.0000   300.0000   -28.5990    84.6588    -1.9790    -1.4485    20.0000    20.0000    10.0000    20.0000    26.0000    10.0000    16.0000    20.0000    -0.0005     0.0005   159.4164   -41.1662     3.9813    21.4502    14.7000     2.0000     1.0000   300.0200     0.000
     35     2.5000     0.5000    -0.0001     6.4999     24.245     92.000 194311.000     30.000    55.6225   -20.0773   -34.0455   120.0962    -0.1480    -3.0001   -41.6214     0.0000   250.0000     0.0000     1.0000   300.0000   300.0000   -28.6289    85.0336    -1.9790    -1.4485    20.0000    20.0000    10.0000    20.0000    26.0000    10.0000    16.0000    20.0000    -0.0005     0.0005   159.4164   -41.1662     3.9812    21.1999    14.7000     2.0000     1.0000   300.0200     0.000
     36     2.5001     0.5000    -0.0001     6.2501     24.576     72.000 194311.000     30.000    55.9535   -20.0773   -34.2541   120.0962    -0.1480    -3.0001   -41.3595     0.0000   250.0000     0.0000     1.0000   300.0000   300.0000   -28.6573    85.4159    -1.9790    -1.4485    20.0000    20.0000    10.0000    20.0000    26.0000    10.0000    16.0000    20.0000    -0.0005     0.0005   159.4164   -41.1662     3.9813    20.9501    14.7000     2.0000     1.0000   300.0180     0.000
     37     2.5001     0.5000    -0.0001     6.0000     24.995     69.000 194311.000     30.000    56.2903   -20.0773   -34.4667   120.0962    -0.1480    -3.0001   -41.0963     0.0000   250.0000     0.0000     1.0000   300.0000   300.0000   -28.6841    85.8003    -1.9790    -1.4485    20.0000    20.0000    10.0000    20.0000    26.0000    10.0000    16.0000    20.0000    -0.0005     0.0005   159.4164   -41.1662     3.9813    20.7001    14.7000     2.0000     1.0000   300.0020     0.000
     38     2.5001     0.5000    -0.0001     5.7501     25.241     88.000 194311.000     30.000    56.6333   -20.0773   -34.6834   120.0962    -0.1480    -3.0001   -40.8317     0.0000   250.0000     0.0000     1.0000   300.0000   300.0000   -28.7078    86.1893    -1.9790    -1.4485    20.0000    20.0000    10.0000    20.0000    26.0000    10.0000    16.0000    20.0000    -0.0005     0.0005   159.4164   -41.1662     3.9813    20.4501    14.7000     2.0000     1.0000   300.0200     0.000
     39     2.5000     0.5000    -0.0001     5.4998     25.911     90.000 194311.000     30.000    56.9827   -20.0773   -34.9044   120.0962    -0.1480    -3.0001   -40.5656     0.0000   250.0000     0.0000     1.0000   300.0000   300.0000   -28.7308    86.5800    -1.9790    -1.4485    20.0000    20.0000    10.0000    20.0000    26.0000    10.0000    16.0000    20.0000    -0.0005     0.0005   159.4164   -41.1662     3.9813    20.1998    14.7000     2.0000     1.0000   300.0120     0.000
     40     2.4999     0.5008    -0.0001     5.2501     26.097     72.000 194311.000     30.000    57.3387   -20.0773   -35.1292   120.0962    -0.1480    -3.0001   -40.2982     0.0000   250.0000     0.0000     1.0000   300.0000   300.0000   -28.7308    86.9781    -1.9790    -1.4485    20.0000    20.0000    10.0000    20.0000    26.0000    10.0000    16.0000    20.0000    -0.0005     0.0005   159.4164   -41.1662     3.9813    19.9501    14.7000     2.0000     1.0000   300.0210     0.000
     41     2.5001     0.5000    -0.0001     4.9999     26.395     63.000 194311.000     30.000    57.7013   -20.0773   -35.3590   120.0962    -0.1480    -3.0001   -40.0292     0.0000   250.0000     0.0000     1.0000   300.0000   300.0000   -28.7684    87.3816    -1.9790    -1.4485    20.0000    20.0000    10.0000    20.0000    26.0000    10.0000    16.0000    20.0000    -0.0005     0.0005   159.4164   -41.1662     3.9813    19.6999    14.7000     2.0000     1.0000   299.9890     0.000
     42     2.4999     0.5007    -0.0001     4.7501     26.543     87.000 194311.000     30.000    58.0709   -20.0773   -35.5928   120.0962    -0.1480    -3.0001   -39.7588     0.0000   250.0000     0.0000     1.0000   300.0000   300.0000   -28.7684    87.7875    -1.9790    -1.4485    20.0000    20.0000    10.0000    20.0000    26.0000    10.0000    16.0000    20.0000    -0.0005     0.0005   159.4164   -41.1662     3.9813    19.4501    14.7000     2.0000     1.0000   300.0110     0.000
     43     2.5000     0.5000    -0.0001     4.5000     26.721     71.000 194311.000     30.000    58.4478   -20.0773   -35.8318   120.0962    -0.1480    -3.0001   -39.4868     0.0000   250.0000     0.0000     1.0000   300.0000   300.0000   -28.7967    88.2001    -1.9790    -1.4485    20.0000    20.0000    10.0000    20.0000    26.0000    10.0000    16.0000    20.0000    -0.0005     0.0005   159.4164   -41.1662     3.9813    19.2000    14.7000     2.0000     1.0000   299.8960     0.000
     44     2.4999     0.5005    -0.0001     4.2500     26.994     63.000 194311.000     30.000    58.8321   -20.0773   -36.0754   120.0962    -0.1480    -3.0001   -39.2133     0.0000   250.0000     0.0000     1.0000   300.0000   300.0000   -28.7967    88.6162    -1.9790    -1.4485    20.0000    20.0000    10.0000    20.0000    26.0000    10.0000    16.0000    20.0000    -0.0005     0.0005   159.4164   -41.1662     3.9813    18.9500    14.7000     2.0000     1.0000   300.0130     0.000
     45     2.4998     0.5008    -0.0001     3.9999     27.152     49.000 194311.000     30.000    59.2240   -20.0773   -36.3242   120.0962    -0.1480    -3.0001   -38.9382     0.0000   250.0000     0.0000     1.0000   300.0000   300.0000   -28.7967    89.0371    -1.9790    -1.4485    20.0000    20.0000    10.0000    20.0000    26.0000    10.0000    16.0000    20.0000    -0.0005     0.0005   159.4164   -41.1662     3.9812    18.6999    14.7000     2.0000     1.0000   300.0360     0.000
     46     2.5000     0.5000    -0.0001     3.7501     27.597     62.000 194311.000     30.000    59.6240   -20.0773   -36.5779   120.0962    -0.1480    -3.0001   -38.6614     0.0000   250.0000     0.0000     1.0000   300.0000   300.0000   -28.8200    89.4659    -1.9790    -1.4485    20.0000    20.0000    10.0000    20.0000    26.0000    10.0000    16.0000    20.0000    -0.0005     0.0005   159.4164   -41.1662     3.9812    18.4501    14.7000     2.0000     1.0000   300.0160     0.000
     47     2.5000     0.5001    -0.0001     3.5000     28.340     61.000 194311.000     30.000    60.0321   -20.0773   -36.8374   120.0962    -0.1480    -3.0001   -38.3830     0.0000   250.0000     0.0000     1.0000   300.0000   300.0000   -28.8200    89.9017    -1.9790    -1.4485    20.0000    20.0000    10.0000    20.0000    26.0000    10.0000    16.0000    20.0000    -0.0005     0.0005   159.4164   -41.1662     3.9812    18.2000    14.7000     2.0000     1.0000   300.0310     0.000
     48     2.5000     0.5001    -0.0001     3.2499     29.495     47.000 194311.000     30.000    60.4487   -20.0773   -37.1024   120.0962    -0.1480    -3.0001   -38.1029     0.0000   250.0000     0.0000     1.0000   300.0000   300.0000   -28.8200    90.3426    -1.9790    -1.4485    20.0000    20.0000    10.0000    20.0000    26.0000    10.0000    16.0000    20.0000    -0.0005     0.0005   159.4164   -41.1662     3.9813    17.9499    14.7000     2.0000     1.0000   300.0110     0.000
     49     2.5001     0.4999    -0.0001     3.0003     30.021     46.000 194311.000     30.000    60.8740   -20.0773   -37.3727   120.0962    -0.1480    -3.0001   -37.8211     0.0000   250.0000     0.0000     1.0000   300.0000   300.0000   -28.8171    90.7920    -1.9790    -1.4485    20.0000    20.0000    10.0000    20.0000    26.0000    10.0000    16.0000    20.0000    -0.0005     0.0005   159.4164   -41.1662     3.9814    17.7003    14.7000     2.0000     1.0000   300.0020     0.000
     50     2.5000     0.5000    -0.0001     2.7499     30.060     39.000 194311.000     30.000    61.3086   -20.0773   -37.6498   120.0962    -0.1480    -3.0001   -37.5375     0.0000   250.0000     0.0000     1.0000   300.0000   300.0000   -28.8101    91.2399    -1.9790    -1.4485    20.0000    20.0000    10.0000    20.0000    26.0000    10.0000    16.0000    20.0000    -0.0005     0.0005   159.4164   -41.1662     3.9812    17.4499    14.7000     2.0000     1.0000   299.9950     0.000
     51     2.5000     0.5000    -0.0001     2.5000     29.512     33.000 194311.000     30.000    61.7525   -20.0773   -37.9327   120.0962    -0.1480    -3.0001   -37.2522     0.0000   250.0000     0.0000     1.0000   300.0000   300.0000   -28.7996    91.7005    -1.9790    -1.4485    20.0000    20.0000    10.0000    20.0000    26.0000    10.0000    16.0000    20.0000    -0.0005     0.0005   159.4164   -41.1662     3.9812    17.2000    14.7000     2.0000     1.0000   300.0150     0.000
     52     2.5000     0.5000    -0.0001     2.2499     29.789     46.000 194311.000     30.000    62.2063   -20.0773   -38.2224   120.0962    -0.1480    -3.0001   -36.9649     0.0000   250.0000     0.0000     1.0000   300.0000   300.0000   -28.7850    92.1682    -1.9790    -1.4485    20.0000    20.0000    10.0000    20.0000    26.0000    10.0000    16.0000    20.0000    -0.0005     0.0005   159.4164   -41.1662     3.9813    16.9499    14.7000     2.0000     1.0000   300.0110     0.000
     53     2.4999     0.5000    -0.0001     2.0000     30.125     38.000 194311.000     30.000    62.6702   -20.0773   -38.5185   120.0962    -0.1480    -3.0001   -36.6758     0.0000   250.0000     0.0000     1.0000   300.0000   300.0000   -28.7673    92.6387    -1.9790    -1.4485    20.0000    20.0000    10.0000    20.0000    26.0000    10.0000    16.0000    20.0000    -0.0005     0.0005   159.4164   -41.1662     3.9812    16.7000    14.7000     2.0000     1.0000   299.9470     0.000
     54     2.5000     0.5000    -0.0001     1.7500     30.395     37.000 194311.000     30.000    63.1445   -20.0773   -38.8217   120.0962    -0.1480    -3.0001   -36.3848     0.0000   250.0000     0.0000     1.0000   300.0000   300.0000   -28.7456    93.1227    -1.9790    -1.4485    20.0000    20.0000    10.0000    20.0000    26.0000    10.0000    16.0000    20.0000    -0.0005     0.0005   159.4164   -41.1662     3.9813    16.4500    14.7000     2.0000     1.0000   300.0230     0.000
     55     2.5000     0.5000    -0.0001     1.5001     30.818     44.000 194311.000     30.000    63.6299   -20.0773   -39.1321   120.0962    -0.1480    -3.0001   -36.0918     0.0000   250.0000     0.0000     1.0000   300.0000   300.0000   -28.7196    93.6111    -1.9790    -1.4485    20.0000    20.0000    10.0000    20.0000    26.0000    10.0000    16.0000    20.0000    -0.0005     0.0005   159.4164   -41.1662     3.9813    16.2001    14.7000     2.0000     1.0000   300.0230     0.000
     56     2.5000     0.5000    -0.0001     1.2500     31.879     51.000 194311.000     30.000    64.1267   -20.0773   -39.4504   120.0962    -0.1480    -3.0001   -35.7968     0.0000   250.0000     0.0000     1.0000   300.0000   300.0000   -28.6896    94.1084    -1.9790    -1.4485    20.0000    20.0000    10.0000    20.0000    26.0000    10.0000    16.0000    20.0000    -0.0005     0.0005   159.4164   -41.1662     3.9813    15.9500    14.7000     2.0000     1.0000   300.0140     0.000
     57     2.5000     0.5000    -0.0001     1.0000     33.350     78.000 194311.000     30.000    64.6352   -20.0773   -39.7763   120.0962    -0.1480    -3.0001   -35.4997     0.0000   250.0000     0.0000     1.0000   300.0000   300.0000   -28.6550    94.6129    -1.9790    -1.4485    20.0000    20.0000    10.0000    20.0000    26.0000    10.0000    16.0000    20.0000    -0.0005     0.0005   159.4164   -41.1662     3.9812    15.7000    14.7000     2.0000     1.0000   300.0060     0.000
     58     2.5000     0.5000    -0.0001     0.7500     34.075    132.000 194311.000     30.000    65.1560   -20.0773   -40.1105   120.0962    -0.1480    -3.0001   -35.2005     0.0000   250.0000     0.0000     1.0000   300.0000   300.0000   -28.6159    95.1285    -1.9790    -1.4485    20.0000    20.0000    10.0000    20.0000    26.0000    10.0000    16.0000    20.0000    -0.0005     0.0005   159.4164   -41.1662     3.9813    15.4500    14.7000     2.0000     1.0000   300.0320     0.000
     59     2.5000     0.5000    -0.0001     0.5001     33.167    274.000 194311.000     30.000    65.6897   -20.0773   -40.4533   120.0962    -0.1480    -3.0001   -34.8991     0.0000   250.0000     0.0000     1.0000   300.0000   300.0000   -28.5718    95.6495    -1.9790    -1.4485    20.0000    20.0000    10.0000    20.0000    26.0000    10.0000    16.0000    20.0000    -0.0005     0.0005   159.4164   -41.1662     3.9812    15.2001    14.7000     2.0000     1.0000   299.9970     0.000
     60     2.5001     0.5000    -0.0001     0.2499     31.668    522.000 194311.000     30.000    66.2366   -20.0773   -40.8052   120.0962    -0.1480    -3.0001   -34.5956     0.0000   250.0000     0.0000     1.0000   300.0000   300.0000   -28.5228    96.1861    -1.9790    -1.4485    20.0000    20.0000    10.0000    20.0000    26.0000    10.0000    16.0000    20.0000    -0.0005     0.0005   159.4164   -41.1662     3.9813    14.9499    14.7000     2.0000     1.0000   300.0160     0.000
     61     2.5000     0.5000    -0.0001     0.0001     30.090    672.000 194311.000     30.000    66.7975   -20.0773   -41.1661   120.0962    -0.1480    -3.0001   -34.2897     0.0000   250.0000     0.0000     1.0000   300.0000   300.0000   -28.4683    96.7271    -1.9790    -1.4485    20.0000    20.0000    10.0000    20.0000    26.0000    10.0000    16.0000    20.0000    -0.0005     0.0005   159.4164   -41.1662     3.9813    14.7001    14.7000     2.0000     1.0000   300.0420     0.000
# Sum of Counts = 4852
# Center of Mass = 5.088445+/-0.121864
# Full Width Half-Maximum = 9.004952+/-0.122918
# 11:11:11 AM  9/6/2024   scan completed.
