# scan = 88
# date = 9/6/2024
# time = 4:58:52 AM
# proposal = 32905
# experiment = Effects of electric field on phonon dispersion and lifetimes of poled PMN-30PT
# experiment_number = 812
# command = scan h 2.5 k 0.25 l 0 e 15 0 0.25 preset mcu 30
# builtin_command = scan h 2.5 k 0.25 l 0 e 15 0 0.25 preset mcu 30
# users = George Yumnam, Michael Manley, Puspa Upreti, Raphael Hermann, SHAOFEI WANG
# local_contact = Songxue Chi
# scan_title = (2.5,0.25,0) X to M transverse mode scan at E 240 V
# monochromator = PG002
# analyzer = Pg002
# sense = -+-
# collimation = 48-40-40-120
# samplename = PMN-30PT
# sampletype = crystal
# samplemosaic = 30.000000
# latticeconstants = 4.023634,4.023634,4.023634,90.000000,90.000000,90.000000
# ubmatrix = -0.008055,-0.248252,-0.008588,-0.248328,0.007840,0.006285,-0.006007,0.008785,-0.248304
# mode = 0
# plane_normal = 0.034555,-0.025290,0.999083
# ubconf = UB04Sep2024_115522AM.ini
# preset_type = normal 
# preset_channel = mcu
# preset_value = 30.000000
# def_x = e
# def_y = detector
# col_headers = 
#   Pt.          h          k          l          e       time   detector    monitor        mcu focal_length         m1         m2   mcrystal       marc     mtrans     mfocus       ampl         dc       freq     output       temp     temp_2         s1         s2        sgl        sgu        bbb        bbl        bbr        bbt        bab        bal        bar        bat        stl        stu         a1         a2          q         ei         ef   ampl_out output_state        vti     sample
      1     2.5000     0.2500    -0.0001    15.0018     27.484     36.000 194311.000     30.000    46.9938   -20.0773   -28.6390   120.0962    -0.1480    -3.0001   -49.8518     0.0000   240.0000     0.0000     1.0000   300.0000   300.0000   -32.8047    72.5897    -1.9790    -1.4485    20.0000    20.0000    10.0000    20.0000    26.0000    10.0000    16.0000    20.0000    -0.0005     0.0005   159.4164   -41.1662     3.9235    29.7018    14.7000     2.0000     1.0000   299.9850     0.000
      2     2.5000     0.2500    -0.0001    14.7495     27.208     31.000 194311.000     30.000    47.1929   -20.0773   -28.7640   120.0962    -0.1480    -3.0001   -49.6254     0.0000   240.0000     0.0000     1.0000   300.0000   300.0000   -32.8800    72.8737    -1.9790    -1.4485    20.0000    20.0000    10.0000    20.0000    26.0000    10.0000    16.0000    20.0000    -0.0005     0.0005   159.4164   -41.1662     3.9233    29.4495    14.7000     2.0000     1.0000   300.0270     0.000
      3     2.5000     0.2500    -0.0001    14.4999     26.982     53.000 194311.000     30.000    47.3944   -20.0773   -28.8893   120.0962    -0.1480    -3.0001   -49.3982     0.0000   240.0000     0.0000     1.0000   300.0000   300.0000   -32.9548    73.1619    -1.9790    -1.4485    20.0000    20.0000    10.0000    20.0000    26.0000    10.0000    16.0000    20.0000    -0.0005     0.0005   159.4164   -41.1662     3.9234    29.1999    14.7000     2.0000     1.0000   300.0260     0.000
      4     2.5000     0.2500    -0.0001    14.2506     26.429     34.000 194311.000     30.000    47.5986   -20.0773   -29.0161   120.0962    -0.1480    -3.0001   -49.1702     0.0000   240.0000     0.0000     1.0000   300.0000   300.0000   -33.0286    73.4483    -1.9790    -1.4485    20.0000    20.0000    10.0000    20.0000    26.0000    10.0000    16.0000    20.0000    -0.0005     0.0005   159.4164   -41.1662     3.9234    28.9507    14.7000     2.0000     1.0000   299.9870     0.000
      5     2.5000     0.2500    -0.0001    13.9994     26.097     28.000 194311.000     30.000    47.8055   -20.0773   -29.1456   120.0962    -0.1480    -3.0001   -48.9414     0.0000   240.0000     0.0000     1.0000   300.0000   300.0000   -33.1016    73.7381    -1.9790    -1.4485    20.0000    20.0000    10.0000    20.0000    26.0000    10.0000    16.0000    20.0000    -0.0005     0.0005   159.4164   -41.1662     3.9234    28.6995    14.7000     2.0000     1.0000   300.0060     0.000
      6     2.5000     0.2500    -0.0001    13.7503     25.718     35.000 194311.000     30.000    48.0151   -20.0773   -29.2758   120.0962    -0.1480    -3.0001   -48.7117     0.0000   240.0000     0.0000     1.0000   300.0000   300.0000   -33.1744    74.0288    -1.9790    -1.4485    20.0000    20.0000    10.0000    20.0000    26.0000    10.0000    16.0000    20.0000    -0.0005     0.0005   159.4164   -41.1662     3.9234    28.4503    14.7000     2.0000     1.0000   300.0000     0.000
      7     2.5000     0.2500    -0.0001    13.5003     25.697     47.000 194311.000     30.000    48.2274   -20.0773   -29.4082   120.0962    -0.1480    -3.0001   -48.4811     0.0000   240.0000     0.0000     1.0000   300.0000   300.0000   -33.2456    74.3237    -1.9790    -1.4485    20.0000    20.0000    10.0000    20.0000    26.0000    10.0000    16.0000    20.0000    -0.0005     0.0005   159.4164   -41.1662     3.9235    28.2003    14.7000     2.0000     1.0000   300.0050     0.000
      8     2.5000     0.2500    -0.0001    13.2497     25.643     35.000 194311.000     30.000    48.4427   -20.0773   -29.5428   120.0962    -0.1480    -3.0001   -48.2497     0.0000   240.0000     0.0000     1.0000   300.0000   300.0000   -33.3167    74.6180    -1.9790    -1.4485    20.0000    20.0000    10.0000    20.0000    26.0000    10.0000    16.0000    20.0000    -0.0005     0.0005   159.4164   -41.1662     3.9234    27.9497    14.7000     2.0000     1.0000   300.0000     0.000
      9     2.5000     0.2500    -0.0001    13.0000     25.775     33.000 194311.000     30.000    48.6608   -20.0773   -29.6786   120.0962    -0.1480    -3.0001   -48.0174     0.0000   240.0000     0.0000     1.0000   300.0000   300.0000   -33.3867    74.9145    -1.9790    -1.4485    20.0000    20.0000    10.0000    20.0000    26.0000    10.0000    16.0000    20.0000    -0.0005     0.0005   159.4164   -41.1662     3.9234    27.7000    14.7000     2.0000     1.0000   300.0010     0.000
     10     2.5000     0.2500    -0.0001    12.7500     26.099     44.000 194311.000     30.000    48.8819   -20.0773   -29.8166   120.0962    -0.1480    -3.0001   -47.7842     0.0000   240.0000     0.0000     1.0000   300.0000   300.0000   -33.4561    75.2145    -1.9790    -1.4485    20.0000    20.0000    10.0000    20.0000    26.0000    10.0000    16.0000    20.0000    -0.0005     0.0005   159.4164   -41.1662     3.9235    27.4500    14.7000     2.0000     1.0000   299.9170     0.000
     11     2.5000     0.2500    -0.0001    12.4999     26.571     31.000 194311.000     30.000    49.1060   -20.0773   -29.9566   120.0962    -0.1480    -3.0001   -47.5501     0.0000   240.0000     0.0000     1.0000   300.0000   300.0000   -33.5245    75.5143    -1.9790    -1.4485    20.0000    20.0000    10.0000    20.0000    26.0000    10.0000    16.0000    20.0000    -0.0005     0.0005   159.4164   -41.1662     3.9234    27.1999    14.7000     2.0000     1.0000   300.0000     0.000
     12     2.5000     0.2500    -0.0001    12.2504     26.871     37.000 194311.000     30.000    49.3332   -20.0773   -30.0982   120.0962    -0.1480    -3.0001   -47.3151     0.0000   240.0000     0.0000     1.0000   300.0000   300.0000   -33.5921    75.8178    -1.9790    -1.4485    20.0000    20.0000    10.0000    20.0000    26.0000    10.0000    16.0000    20.0000    -0.0005     0.0005   159.4164   -41.1662     3.9235    26.9504    14.7000     2.0000     1.0000   299.9520     0.000
     13     2.5000     0.2500    -0.0001    11.9996     26.962     40.000 194311.000     30.000    49.5636   -20.0773   -30.2426   120.0962    -0.1480    -3.0001   -47.0791     0.0000   240.0000     0.0000     1.0000   300.0000   300.0000   -33.6591    76.1227    -1.9790    -1.4485    20.0000    20.0000    10.0000    20.0000    26.0000    10.0000    16.0000    20.0000    -0.0005     0.0005   159.4164   -41.1662     3.9234    26.6996    14.7000     2.0000     1.0000   300.0040     0.000
     14     2.5000     0.2500    -0.0001    11.7500     27.082     39.000 194311.000     30.000    49.7973   -20.0773   -30.3884   120.0962    -0.1480    -3.0001   -46.8422     0.0000   240.0000     0.0000     1.0000   300.0000   300.0000   -33.7245    76.4292    -1.9790    -1.4485    20.0000    20.0000    10.0000    20.0000    26.0000    10.0000    16.0000    20.0000    -0.0005     0.0005   159.4164   -41.1662     3.9234    26.4500    14.7000     2.0000     1.0000   300.0250     0.000
     15     2.5000     0.2500    -0.0001    11.5001     27.127     26.000 194311.000     30.000    50.0343   -20.0773   -30.5364   120.0962    -0.1480    -3.0001   -46.6044     0.0000   240.0000     0.0000     1.0000   300.0000   300.0000   -33.7895    76.7391    -1.9790    -1.4485    20.0000    20.0000    10.0000    20.0000    26.0000    10.0000    16.0000    20.0000    -0.0005     0.0005   159.4164   -41.1662     3.9234    26.2001    14.7000     2.0000     1.0000   300.0010     0.000
     16     2.5000     0.2500    -0.0001    11.2500     26.781     44.000 194311.000     30.000    50.2748   -20.0773   -30.6869   120.0962    -0.1480    -3.0001   -46.3655     0.0000   240.0000     0.0000     1.0000   300.0000   300.0000   -33.8537    77.0497    -1.9790    -1.4485    20.0000    20.0000    10.0000    20.0000    26.0000    10.0000    16.0000    20.0000    -0.0005     0.0005   159.4164   -41.1662     3.9234    25.9500    14.7000     2.0000     1.0000   300.0060     0.000
     17     2.5001     0.2500    -0.0001    11.0000     26.533     42.000 194311.000     30.000    50.5187   -20.0773   -30.8394   120.0962    -0.1480    -3.0001   -46.1257     0.0000   240.0000     0.0000     1.0000   300.0000   300.0000   -33.9162    77.3661    -1.9790    -1.4485    20.0000    20.0000    10.0000    20.0000    26.0000    10.0000    16.0000    20.0000    -0.0005     0.0005   159.4164   -41.1662     3.9235    25.7001    14.7000     2.0000     1.0000   299.9920     0.000
     18     2.5000     0.2500    -0.0001    10.7500     26.471     50.000 194311.000     30.000    50.7662   -20.0773   -30.9943   120.0962    -0.1480    -3.0001   -45.8849     0.0000   240.0000     0.0000     1.0000   300.0000   300.0000   -33.9786    77.6800    -1.9790    -1.4485    20.0000    20.0000    10.0000    20.0000    26.0000    10.0000    16.0000    20.0000    -0.0005     0.0005   159.4164   -41.1662     3.9234    25.4501    14.7000     2.0000     1.0000   300.0240     0.000
     19     2.5000     0.2500    -0.0001    10.5002     26.417     38.000 194311.000     30.000    51.0174   -20.0773   -31.1514   120.0962    -0.1480    -3.0001   -45.6430     0.0000   240.0000     0.0000     1.0000   300.0000   300.0000   -34.0394    78.0003    -1.9790    -1.4485    20.0000    20.0000    10.0000    20.0000    26.0000    10.0000    16.0000    20.0000    -0.0005     0.0005   159.4164   -41.1662     3.9234    25.2003    14.7000     2.0000     1.0000   299.9280     0.000
     20     2.5000     0.2500    -0.0001    10.2503     26.570     52.000 194311.000     30.000    51.2724   -20.0773   -31.3110   120.0962    -0.1480    -3.0001   -45.4002     0.0000   240.0000     0.0000     1.0000   300.0000   300.0000   -34.0992    78.3218    -1.9790    -1.4485    20.0000    20.0000    10.0000    20.0000    26.0000    10.0000    16.0000    20.0000    -0.0005     0.0005   159.4164   -41.1662     3.9235    24.9504    14.7000     2.0000     1.0000   300.0140     0.000
     21     2.5000     0.2500    -0.0001     9.9999     26.696     39.000 194311.000     30.000    51.5312   -20.0773   -31.4735   120.0962    -0.1480    -3.0001   -45.1562     0.0000   240.0000     0.0000     1.0000   300.0000   300.0000   -34.1578    78.6436    -1.9790    -1.4485    20.0000    20.0000    10.0000    20.0000    26.0000    10.0000    16.0000    20.0000    -0.0005     0.0005   159.4164   -41.1662     3.9234    24.6999    14.7000     2.0000     1.0000   299.9380     0.000
     22     2.5000     0.2500    -0.0001     9.7497     27.119     44.000 194311.000     30.000    51.7940   -20.0773   -31.6383   120.0962    -0.1480    -3.0001   -44.9112     0.0000   240.0000     0.0000     1.0000   300.0000   300.0000   -34.2159    78.9725    -1.9790    -1.4485    20.0000    20.0000    10.0000    20.0000    26.0000    10.0000    16.0000    20.0000    -0.0005     0.0005   159.4164   -41.1662     3.9234    24.4497    14.7000     2.0000     1.0000   300.0060     0.000
     23     2.5000     0.2500    -0.0001     9.4999     27.406     47.000 194311.000     30.000    52.0609   -20.0773   -31.8055   120.0962    -0.1480    -3.0001   -44.6652     0.0000   240.0000     0.0000     1.0000   300.0000   300.0000   -34.2722    79.3001    -1.9790    -1.4485    20.0000    20.0000    10.0000    20.0000    26.0000    10.0000    16.0000    20.0000    -0.0005     0.0005   159.4164   -41.1662     3.9234    24.1999    14.7000     2.0000     1.0000   300.0280     0.000
     24     2.5000     0.2500    -0.0001     9.2502     27.674     42.000 194311.000     30.000    52.3319   -20.0773   -31.9752   120.0962    -0.1480    -3.0001   -44.4180     0.0000   240.0000     0.0000     1.0000   300.0000   300.0000   -34.3274    79.6310    -1.9790    -1.4485    20.0000    20.0000    10.0000    20.0000    26.0000    10.0000    16.0000    20.0000    -0.0005     0.0005   159.4164   -41.1662     3.9234    23.9503    14.7000     2.0000     1.0000   300.0230     0.000
     25     2.5000     0.2500    -0.0001     8.9999     27.491     54.000 194311.000     30.000    52.6071   -20.0773   -32.1482   120.0962    -0.1480    -3.0001   -44.1697     0.0000   240.0000     0.0000     1.0000   300.0000   300.0000   -34.3818    79.9682    -1.9790    -1.4485    20.0000    20.0000    10.0000    20.0000    26.0000    10.0000    16.0000    20.0000    -0.0005     0.0005   159.4164   -41.1662     3.9235    23.6999    14.7000     2.0000     1.0000   300.0130     0.000
     26     2.5000     0.2500    -0.0001     8.7501     26.999     53.000 194311.000     30.000    52.8868   -20.0773   -32.3237   120.0962    -0.1480    -3.0001   -43.9203     0.0000   240.0000     0.0000     1.0000   300.0000   300.0000   -34.4346    80.3048    -1.9790    -1.4485    20.0000    20.0000    10.0000    20.0000    26.0000    10.0000    16.0000    20.0000    -0.0005     0.0005   159.4164   -41.1662     3.9234    23.4501    14.7000     2.0000     1.0000   300.0130     0.000
     27     2.5000     0.2500    -0.0001     8.5001     26.239     74.000 194311.000     30.000    53.1710   -20.0773   -32.5021   120.0962    -0.1480    -3.0001   -43.6697     0.0000   240.0000     0.0000     1.0000   300.0000   300.0000   -34.4858    80.6442    -1.9790    -1.4485    20.0000    20.0000    10.0000    20.0000    26.0000    10.0000    16.0000    20.0000    -0.0005     0.0005   159.4164   -41.1662     3.9234    23.2001    14.7000     2.0000     1.0000   299.9970     0.000
     28     2.5000     0.2500    -0.0001     8.2498     25.341     60.000 194311.000     30.000    53.4598   -20.0773   -32.6838   120.0962    -0.1480    -3.0001   -43.4180     0.0000   240.0000     0.0000     1.0000   300.0000   300.0000   -34.5363    80.9903    -1.9790    -1.4485    20.0000    20.0000    10.0000    20.0000    26.0000    10.0000    16.0000    20.0000    -0.0005     0.0005   159.4164   -41.1662     3.9234    22.9498    14.7000     2.0000     1.0000   299.9130     0.000
     29     2.5000     0.2500    -0.0001     8.0000     24.638     60.000 194311.000     30.000    53.7534   -20.0773   -32.8682   120.0962    -0.1480    -3.0001   -43.1651     0.0000   240.0000     0.0000     1.0000   300.0000   300.0000   -34.5847    81.3365    -1.9790    -1.4485    20.0000    20.0000    10.0000    20.0000    26.0000    10.0000    16.0000    20.0000    -0.0005     0.0005   159.4164   -41.1662     3.9234    22.7000    14.7000     2.0000     1.0000   300.0120     0.000
     30     2.5000     0.2500    -0.0001     7.7501     24.254     66.000 194311.000     30.000    54.0519   -20.0773   -33.0559   120.0962    -0.1480    -3.0001   -42.9109     0.0000   240.0000     0.0000     1.0000   300.0000   300.0000   -34.6325    81.6861    -1.9790    -1.4485    20.0000    20.0000    10.0000    20.0000    26.0000    10.0000    16.0000    20.0000    -0.0005     0.0005   159.4164   -41.1662     3.9234    22.4501    14.7000     2.0000     1.0000   299.8780     0.000
     31     2.5000     0.2500    -0.0001     7.4998     24.125     53.000 194311.000     30.000    54.3554   -20.0773   -33.2471   120.0962    -0.1480    -3.0001   -42.6556     0.0000   240.0000     0.0000     1.0000   300.0000   300.0000   -34.6784    82.0379    -1.9790    -1.4485    20.0000    20.0000    10.0000    20.0000    26.0000    10.0000    16.0000    20.0000    -0.0005     0.0005   159.4164   -41.1662     3.9233    22.1998    14.7000     2.0000     1.0000   300.0100     0.000
     32     2.5000     0.2500    -0.0001     7.2503     24.049     49.000 194311.000     30.000    54.6640   -20.0773   -33.4410   120.0962    -0.1480    -3.0001   -42.3989     0.0000   240.0000     0.0000     1.0000   300.0000   300.0000   -34.7223    82.3975    -1.9790    -1.4485    20.0000    20.0000    10.0000    20.0000    26.0000    10.0000    16.0000    20.0000    -0.0005     0.0005   159.4164   -41.1662     3.9235    21.9503    14.7000     2.0000     1.0000   299.8890     0.000
     33     2.5000     0.2500    -0.0001     6.9997     24.085     66.000 194311.000     30.000    54.9780   -20.0773   -33.6393   120.0962    -0.1480    -3.0001   -42.1410     0.0000   240.0000     0.0000     1.0000   300.0000   300.0000   -34.7654    82.7580    -1.9790    -1.4485    20.0000    20.0000    10.0000    20.0000    26.0000    10.0000    16.0000    20.0000    -0.0005     0.0005   159.4164   -41.1662     3.9234    21.6997    14.7000     2.0000     1.0000   300.0050     0.000
     34     2.5000     0.2500    -0.0001     6.7501     24.128     36.000 194311.000     30.000    55.2975   -20.0773   -33.8403   120.0962    -0.1480    -3.0001   -41.8818     0.0000   240.0000     0.0000     1.0000   300.0000   300.0000   -34.8064    83.1214    -1.9790    -1.4485    20.0000    20.0000    10.0000    20.0000    26.0000    10.0000    16.0000    20.0000    -0.0005     0.0005   159.4164   -41.1662     3.9234    21.4501    14.7000     2.0000     1.0000   299.9330     0.000
     35     2.5000     0.2500    -0.0001     6.5001     24.145     35.000 194311.000     30.000    55.6225   -20.0773   -34.0453   120.0962    -0.1480    -3.0001   -41.6214     0.0000   240.0000     0.0000     1.0000   300.0000   300.0000   -34.8459    83.4883    -1.9790    -1.4485    20.0000    20.0000    10.0000    20.0000    26.0000    10.0000    16.0000    20.0000    -0.0005     0.0005   159.4164   -41.1662     3.9234    21.2001    14.7000     2.0000     1.0000   300.0140     0.000
     36     2.5000     0.2500    -0.0001     6.2500     24.501     34.000 194311.000     30.000    55.9535   -20.0773   -34.2541   120.0962    -0.1480    -3.0001   -41.3595     0.0000   240.0000     0.0000     1.0000   300.0000   300.0000   -34.8836    83.8590    -1.9790    -1.4485    20.0000    20.0000    10.0000    20.0000    26.0000    10.0000    16.0000    20.0000    -0.0005     0.0005   159.4164   -41.1662     3.9233    20.9500    14.7000     2.0000     1.0000   299.9390     0.000
     37     2.5000     0.2500    -0.0001     6.0000     24.862     40.000 194311.000     30.000    56.2903   -20.0773   -34.4667   120.0962    -0.1480    -3.0001   -41.0963     0.0000   240.0000     0.0000     1.0000   300.0000   300.0000   -34.9194    84.2359    -1.9790    -1.4485    20.0000    20.0000    10.0000    20.0000    26.0000    10.0000    16.0000    20.0000    -0.0005     0.0005   159.4164   -41.1662     3.9234    20.7001    14.7000     2.0000     1.0000   300.0020     0.000
     38     2.5000     0.2500    -0.0001     5.7500     25.312     34.000 194311.000     30.000    56.6333   -20.0773   -34.6835   120.0962    -0.1480    -3.0001   -40.8317     0.0000   240.0000     0.0000     1.0000   300.0000   300.0000   -34.9533    84.6170    -1.9790    -1.4485    20.0000    20.0000    10.0000    20.0000    26.0000    10.0000    16.0000    20.0000    -0.0005     0.0005   159.4164   -41.1662     3.9234    20.4500    14.7000     2.0000     1.0000   299.9420     0.000
     39     2.5001     0.2500    -0.0001     5.4998     25.722     40.000 194311.000     30.000    56.9827   -20.0773   -34.9044   120.0962    -0.1480    -3.0001   -40.5656     0.0000   240.0000     0.0000     1.0000   300.0000   300.0000   -34.9851    85.0025    -1.9790    -1.4485    20.0000    20.0000    10.0000    20.0000    26.0000    10.0000    16.0000    20.0000    -0.0005     0.0005   159.4164   -41.1662     3.9235    20.1998    14.7000     2.0000     1.0000   300.0180     0.000
     40     2.5000     0.2500    -0.0001     5.2502     26.099     33.000 194311.000     30.000    57.3387   -20.0773   -35.1292   120.0962    -0.1480    -3.0001   -40.2982     0.0000   240.0000     0.0000     1.0000   300.0000   300.0000   -35.0154    85.3899    -1.9790    -1.4485    20.0000    20.0000    10.0000    20.0000    26.0000    10.0000    16.0000    20.0000    -0.0005     0.0005   159.4164   -41.1662     3.9235    19.9502    14.7000     2.0000     1.0000   300.0160     0.000
     41     2.5001     0.2500    -0.0001     5.0000     26.546     44.000 194311.000     30.000    57.7013   -20.0773   -35.3589   120.0962    -0.1480    -3.0001   -40.0292     0.0000   240.0000     0.0000     1.0000   300.0000   300.0000   -35.0433    85.7842    -1.9790    -1.4485    20.0000    20.0000    10.0000    20.0000    26.0000    10.0000    16.0000    20.0000    -0.0005     0.0005   159.4164   -41.1662     3.9235    19.7000    14.7000     2.0000     1.0000   300.0180     0.000
     42     2.5000     0.2500    -0.0001     4.7501     26.648     38.000 194311.000     30.000    58.0709   -20.0773   -35.5929   120.0962    -0.1480    -3.0001   -39.7588     0.0000   240.0000     0.0000     1.0000   300.0000   300.0000   -35.0691    86.1802    -1.9790    -1.4485    20.0000    20.0000    10.0000    20.0000    26.0000    10.0000    16.0000    20.0000    -0.0005     0.0005   159.4164   -41.1662     3.9235    19.4501    14.7000     2.0000     1.0000   300.0210     0.000
     43     2.5000     0.2500    -0.0001     4.5000     26.750     39.000 194311.000     30.000    58.4478   -20.0773   -35.8318   120.0962    -0.1480    -3.0001   -39.4868     0.0000   240.0000     0.0000     1.0000   300.0000   300.0000   -35.0921    86.5820    -1.9790    -1.4485    20.0000    20.0000    10.0000    20.0000    26.0000    10.0000    16.0000    20.0000    -0.0005     0.0005   159.4164   -41.1662     3.9234    19.2000    14.7000     2.0000     1.0000   299.9970     0.000
     44     2.5001     0.2499    -0.0001     4.2501     26.906     38.000 194311.000     30.000    58.8321   -20.0773   -36.0753   120.0962    -0.1480    -3.0001   -39.2133     0.0000   240.0000     0.0000     1.0000   300.0000   300.0000   -35.1138    86.9922    -1.9790    -1.4485    20.0000    20.0000    10.0000    20.0000    26.0000    10.0000    16.0000    20.0000    -0.0005     0.0005   159.4164   -41.1662     3.9235    18.9501    14.7000     2.0000     1.0000   300.0200     0.000
     45     2.5000     0.2508    -0.0001     3.9999     27.222     34.000 194311.000     30.000    59.2240   -20.0773   -36.3242   120.0962    -0.1480    -3.0001   -38.9382     0.0000   240.0000     0.0000     1.0000   300.0000   300.0000   -35.1138    87.4037    -1.9790    -1.4485    20.0000    20.0000    10.0000    20.0000    26.0000    10.0000    16.0000    20.0000    -0.0005     0.0005   159.4164   -41.1662     3.9235    18.6999    14.7000     2.0000     1.0000   300.0060     0.000
     46     2.5000     0.2500    -0.0001     3.7501     27.651     36.000 194311.000     30.000    59.6240   -20.0773   -36.5779   120.0962    -0.1480    -3.0001   -38.6614     0.0000   240.0000     0.0000     1.0000   300.0000   300.0000   -35.1479    87.8184    -1.9790    -1.4485    20.0000    20.0000    10.0000    20.0000    26.0000    10.0000    16.0000    20.0000    -0.0005     0.0005   159.4164   -41.1662     3.9234    18.4501    14.7000     2.0000     1.0000   300.0090     0.000
     47     2.4999     0.2506    -0.0001     3.5000     28.266     25.000 194311.000     30.000    60.0321   -20.0773   -36.8373   120.0962    -0.1480    -3.0001   -38.3830     0.0000   240.0000     0.0000     1.0000   300.0000   300.0000   -35.1479    88.2405    -1.9790    -1.4485    20.0000    20.0000    10.0000    20.0000    26.0000    10.0000    16.0000    20.0000    -0.0005     0.0005   159.4164   -41.1662     3.9234    18.2000    14.7000     2.0000     1.0000   299.9440     0.000
     48     2.5000     0.2500    -0.0001     3.2499     29.450     29.000 194311.000     30.000    60.4487   -20.0773   -37.1024   120.0962    -0.1480    -3.0001   -38.1029     0.0000   240.0000     0.0000     1.0000   300.0000   300.0000   -35.1724    88.6692    -1.9790    -1.4485    20.0000    20.0000    10.0000    20.0000    26.0000    10.0000    16.0000    20.0000    -0.0005     0.0005   159.4164   -41.1662     3.9233    17.9499    14.7000     2.0000     1.0000   300.0250     0.000
     49     2.5000     0.2503    -0.0001     3.0003     30.063     29.000 194311.000     30.000    60.8740   -20.0773   -37.3727   120.0962    -0.1480    -3.0001   -37.8211     0.0000   240.0000     0.0000     1.0000   300.0000   300.0000   -35.1724    89.1054    -1.9790    -1.4485    20.0000    20.0000    10.0000    20.0000    26.0000    10.0000    16.0000    20.0000    -0.0005     0.0005   159.4164   -41.1662     3.9234    17.7003    14.7000     2.0000     1.0000   300.0280     0.000
     50     2.4999     0.2505    -0.0001     2.7499     30.185     31.000 194311.000     30.000    61.3086   -20.0773   -37.6499   120.0962    -0.1480    -3.0001   -37.5375     0.0000   240.0000     0.0000     1.0000   300.0000   300.0000   -35.1724    89.5466    -1.9790    -1.4485    20.0000    20.0000    10.0000    20.0000    26.0000    10.0000    16.0000    20.0000    -0.0005     0.0005   159.4164   -41.1662     3.9234    17.4499    14.7000     2.0000     1.0000   299.9990     0.000
     51     2.5000     0.2505    -0.0001     2.5000     29.571     28.000 194311.000     30.000    61.7525   -20.0773   -37.9327   120.0962    -0.1480    -3.0001   -37.2522     0.0000   240.0000     0.0000     1.0000   300.0000   300.0000   -35.1724    89.9974    -1.9790    -1.4485    20.0000    20.0000    10.0000    20.0000    26.0000    10.0000    16.0000    20.0000    -0.0005     0.0005   159.4164   -41.1662     3.9235    17.2001    14.7000     2.0000     1.0000   300.0030     0.000
     52     2.4999     0.2506    -0.0001     2.2499     29.698     28.000 194311.000     30.000    62.2063   -20.0773   -38.2224   120.0962    -0.1480    -3.0001   -36.9649     0.0000   240.0000     0.0000     1.0000   300.0000   300.0000   -35.1724    90.4454    -1.9790    -1.4485    20.0000    20.0000    10.0000    20.0000    26.0000    10.0000    16.0000    20.0000    -0.0005     0.0005   159.4164   -41.1662     3.9233    16.9499    14.7000     2.0000     1.0000   299.9520     0.000
     53     2.5000     0.2503    -0.0001     2.0000     30.016     19.000 194311.000     30.000    62.6702   -20.0773   -38.5185   120.0962    -0.1480    -3.0001   -36.6758     0.0000   240.0000     0.0000     1.0000   300.0000   300.0000   -35.1724    90.9074    -1.9790    -1.4485    20.0000    20.0000    10.0000    20.0000    26.0000    10.0000    16.0000    20.0000    -0.0005     0.0005   159.4164   -41.1662     3.9234    16.7000    14.7000     2.0000     1.0000   300.0150     0.000
     54     2.5000     0.2500    -0.0001     1.7500     30.538     25.000 194311.000     30.000    63.1445   -20.0773   -38.8217   120.0962    -0.1480    -3.0001   -36.3848     0.0000   240.0000     0.0000     1.0000   300.0000   300.0000   -35.1715    91.3761    -1.9790    -1.4485    20.0000    20.0000    10.0000    20.0000    26.0000    10.0000    16.0000    20.0000    -0.0005     0.0005   159.4164   -41.1662     3.9234    16.4500    14.7000     2.0000     1.0000   300.0090     0.000
     55     2.5000     0.2500    -0.0001     1.5000     30.769     20.000 194311.000     30.000    63.6299   -20.0773   -39.1322   120.0962    -0.1480    -3.0001   -36.0918     0.0000   240.0000     0.0000     1.0000   300.0000   300.0000   -35.1591    91.8481    -1.9790    -1.4485    20.0000    20.0000    10.0000    20.0000    26.0000    10.0000    16.0000    20.0000    -0.0005     0.0005   159.4164   -41.1662     3.9233    16.2000    14.7000     2.0000     1.0000   299.9980     0.000
     56     2.5000     0.2500    -0.0001     1.2500     31.923     40.000 194311.000     30.000    64.1267   -20.0773   -39.4503   120.0962    -0.1480    -3.0001   -35.7968     0.0000   240.0000     0.0000     1.0000   300.0000   300.0000   -35.1425    92.3334    -1.9790    -1.4485    20.0000    20.0000    10.0000    20.0000    26.0000    10.0000    16.0000    20.0000    -0.0005     0.0005   159.4164   -41.1662     3.9234    15.9500    14.7000     2.0000     1.0000   300.0160     0.000
     57     2.5000     0.2500    -0.0001     1.0000     33.450     76.000 194311.000     30.000    64.6352   -20.0773   -39.7763   120.0962    -0.1480    -3.0001   -35.4997     0.0000   240.0000     0.0000     1.0000   300.0000   300.0000   -35.1221    92.8225    -1.9790    -1.4485    20.0000    20.0000    10.0000    20.0000    26.0000    10.0000    16.0000    20.0000    -0.0005     0.0005   159.4164   -41.1662     3.9234    15.7000    14.7000     2.0000     1.0000   300.0270     0.000
     58     2.5000     0.2500    -0.0001     0.7500     34.072    134.000 194311.000     30.000    65.1560   -20.0773   -40.1105   120.0962    -0.1480    -3.0001   -35.2005     0.0000   240.0000     0.0000     1.0000   300.0000   300.0000   -35.0975    93.3227    -1.9790    -1.4485    20.0000    20.0000    10.0000    20.0000    26.0000    10.0000    16.0000    20.0000    -0.0005     0.0005   159.4164   -41.1662     3.9234    15.4500    14.7000     2.0000     1.0000   300.0190     0.000
     59     2.5000     0.2500    -0.0001     0.5001     33.373    261.000 194311.000     30.000    65.6897   -20.0773   -40.4533   120.0962    -0.1480    -3.0001   -34.8991     0.0000   240.0000     0.0000     1.0000   300.0000   300.0000   -35.0685    93.8281    -1.9790    -1.4485    20.0000    20.0000    10.0000    20.0000    26.0000    10.0000    16.0000    20.0000    -0.0005     0.0005   159.4164   -41.1662     3.9234    15.2001    14.7000     2.0000     1.0000   300.0020     0.000
     60     2.5000     0.2500    -0.0001     0.2499     31.797    482.000 194311.000     30.000    66.2366   -20.0773   -40.8052   120.0962    -0.1480    -3.0001   -34.5956     0.0000   240.0000     0.0000     1.0000   300.0000   300.0000   -35.0345    94.3460    -1.9790    -1.4485    20.0000    20.0000    10.0000    20.0000    26.0000    10.0000    16.0000    20.0000    -0.0005     0.0005   159.4164   -41.1662     3.9234    14.9499    14.7000     2.0000     1.0000   300.0380     0.000
     61     2.5000     0.2500    -0.0001     0.0001     30.120    491.000 194311.000     30.000    66.7975   -20.0773   -41.1661   120.0962    -0.1480    -3.0001   -34.2897     0.0000   240.0000     0.0000     1.0000   300.0000   300.0000   -34.9952    94.8694    -1.9790    -1.4485    20.0000    20.0000    10.0000    20.0000    26.0000    10.0000    16.0000    20.0000    -0.0005     0.0005   159.4164   -41.1662     3.9234    14.7001    14.7000     2.0000     1.0000   300.0060     0.000
# Sum of Counts = 3681
# Center of Mass = 5.228700+/-0.146311
# Full Width Half-Maximum = 9.822385+/-0.149685
# 5:34:22 AM  9/6/2024   scan completed.
