# scan = 195
# date = 9/9/2024
# time = 12:39:48 AM
# proposal = 32905
# experiment = Effects of electric field on phonon dispersion and lifetimes of poled PMN-30PT
# experiment_number = 812
# command = scan h 2.5 k 0.1 l 0 e 15 6 0.25 preset mcu 30
# builtin_command = scan h 2.5 k 0.1 l 0 e 15 6 0.25 preset mcu 30
# users = George Yumnam, Michael Manley, Puspa Upreti, Raphael Hermann, SHAOFEI WANG
# local_contact = Songxue Chi
# scan_title = (2.5,0.1,0) mode thickness at 100 V ramping down
# monochromator = PG002
# analyzer = Pg002
# sense = -+-
# collimation = 48-40-40-120
# samplename = PMN-30PT
# sampletype = crystal
# samplemosaic = 30.000000
# latticeconstants = 4.023634,4.023634,4.023634,90.000000,90.000000,90.000000
# ubmatrix = -0.008055,-0.248252,-0.008588,-0.248328,0.007840,0.006285,-0.006007,0.008785,-0.248304
# mode = 0
# plane_normal = 0.034555,-0.025290,0.999083
# ubconf = UB04Sep2024_115522AM.ini
# preset_type = normal 
# preset_channel = mcu
# preset_value = 30.000000
# def_x = e
# def_y = detector
# col_headers = 
#   Pt.          h          k          l          e       time   detector    monitor        mcu focal_length         m1         m2   mcrystal       marc     mtrans     mfocus       ampl         dc       freq     output       temp     temp_2         s1         s2        sgl        sgu        bbb        bbl        bbr        bbt        bab        bal        bar        bat        stl        stu         a1         a2          q         ei         ef   ampl_out output_state        vti     sample
      1     2.5000     0.1000    -0.0001    15.0018     27.506     27.000 194311.000     30.000    46.9938   -20.0773   -28.6390   120.0962    -0.1480    -3.0001   -49.8518     0.0000   100.0000     0.0000     1.0000   300.0000   300.0000   -36.3251    72.2048    -1.9790    -1.4485    20.0000    20.0000    10.0000    20.0000    26.0000    10.0000    16.0000    20.0000    -0.0005     0.0005   159.4164   -41.1662     3.9070    29.7018    14.7000     2.0000     1.0000   300.0130     0.000
      2     2.5000     0.1000    -0.0001    14.7494     27.146     43.000 194311.000     30.000    47.1929   -20.0773   -28.7641   120.0962    -0.1480    -3.0001   -49.6254     0.0000   100.0000     0.0000     1.0000   300.0000   300.0000   -36.4025    72.4916    -1.9790    -1.4485    20.0000    20.0000    10.0000    20.0000    26.0000    10.0000    16.0000    20.0000    -0.0005     0.0005   159.4164   -41.1662     3.9070    29.4494    14.7000     2.0000     1.0000   300.0090     0.000
      3     2.5001     0.1000    -0.0001    14.4998     26.782     30.000 194311.000     30.000    47.3944   -20.0773   -28.8894   120.0962    -0.1480    -3.0001   -49.3982     0.0000   100.0000     0.0000     1.0000   300.0000   300.0000   -36.4791    72.7802    -1.9790    -1.4485    20.0000    20.0000    10.0000    20.0000    26.0000    10.0000    16.0000    20.0000    -0.0005     0.0005   159.4164   -41.1662     3.9072    29.1998    14.7000     2.0000     1.0000   300.0050     0.000
      4     2.5000     0.1000    -0.0001    14.2506     26.272     30.000 194311.000     30.000    47.5986   -20.0773   -29.0161   120.0962    -0.1480    -3.0001   -49.1702     0.0000   100.0000     0.0000     1.0000   300.0000   300.0000   -36.5546    73.0623    -1.9790    -1.4485    20.0000    20.0000    10.0000    20.0000    26.0000    10.0000    16.0000    20.0000    -0.0005     0.0005   159.4164   -41.1662     3.9070    28.9507    14.7000     2.0000     1.0000   299.9960     0.000
      5     2.5000     0.1000    -0.0001    13.9994     25.893     34.000 194311.000     30.000    47.8055   -20.0773   -29.1456   120.0962    -0.1480    -3.0001   -48.9414     0.0000   100.0000     0.0000     1.0000   300.0000   300.0000   -36.6295    73.3531    -1.9790    -1.4485    20.0000    20.0000    10.0000    20.0000    26.0000    10.0000    16.0000    20.0000    -0.0005     0.0005   159.4164   -41.1662     3.9071    28.6995    14.7000     2.0000     1.0000   300.0080     0.000
      6     2.5000     0.1000    -0.0001    13.7503     25.529     35.000 194311.000     30.000    48.0151   -20.0773   -29.2758   120.0962    -0.1480    -3.0001   -48.7117     0.0000   100.0000     0.0000     1.0000   300.0000   300.0000   -36.7041    73.6418    -1.9790    -1.4485    20.0000    20.0000    10.0000    20.0000    26.0000    10.0000    16.0000    20.0000    -0.0005     0.0005   159.4164   -41.1662     3.9070    28.4503    14.7000     2.0000     1.0000   300.0130     0.000
      7     2.5000     0.1000    -0.0001    13.5003     25.194     38.000 194311.000     30.000    48.2274   -20.0773   -29.4082   120.0962    -0.1480    -3.0001   -48.4811     0.0000   100.0000     0.0000     1.0000   300.0000   300.0000   -36.7771    73.9349    -1.9790    -1.4485    20.0000    20.0000    10.0000    20.0000    26.0000    10.0000    16.0000    20.0000    -0.0005     0.0005   159.4164   -41.1662     3.9071    28.2003    14.7000     2.0000     1.0000   299.9950     0.000
      8     2.5000     0.1000    -0.0001    13.2496     25.355     31.000 194311.000     30.000    48.4427   -20.0773   -29.5428   120.0962    -0.1480    -3.0001   -48.2497     0.0000   100.0000     0.0000     1.0000   300.0000   300.0000   -36.8501    74.2279    -1.9790    -1.4485    20.0000    20.0000    10.0000    20.0000    26.0000    10.0000    16.0000    20.0000    -0.0005     0.0005   159.4164   -41.1662     3.9070    27.9496    14.7000     2.0000     1.0000   299.9900     0.000
      9     2.5000     0.1000    -0.0001    13.0000     25.586     35.000 194311.000     30.000    48.6608   -20.0773   -29.6786   120.0962    -0.1480    -3.0001   -48.0174     0.0000   100.0000     0.0000     1.0000   300.0000   300.0000   -36.9221    74.5245    -1.9790    -1.4485    20.0000    20.0000    10.0000    20.0000    26.0000    10.0000    16.0000    20.0000    -0.0005     0.0005   159.4164   -41.1662     3.9071    27.7000    14.7000     2.0000     1.0000   300.0170     0.000
     10     2.5000     0.1000    -0.0001    12.7500     25.770     43.000 194311.000     30.000    48.8819   -20.0773   -29.8166   120.0962    -0.1480    -3.0001   -47.7842     0.0000   100.0000     0.0000     1.0000   300.0000   300.0000   -36.9934    74.8212    -1.9790    -1.4485    20.0000    20.0000    10.0000    20.0000    26.0000    10.0000    16.0000    20.0000    -0.0005     0.0005   159.4164   -41.1662     3.9070    27.4500    14.7000     2.0000     1.0000   300.0030     0.000
     11     2.5000     0.1000    -0.0001    12.4998     26.170     47.000 194311.000     30.000    49.1060   -20.0773   -29.9566   120.0962    -0.1480    -3.0001   -47.5501     0.0000   100.0000     0.0000     1.0000   300.0000   300.0000   -37.0636    75.1227    -1.9790    -1.4485    20.0000    20.0000    10.0000    20.0000    26.0000    10.0000    16.0000    20.0000    -0.0005     0.0005   159.4164   -41.1662     3.9071    27.1998    14.7000     2.0000     1.0000   300.0030     0.000
     12     2.5000     0.1000    -0.0001    12.2504     26.547     47.000 194311.000     30.000    49.3332   -20.0773   -30.0982   120.0962    -0.1480    -3.0001   -47.3151     0.0000   100.0000     0.0000     1.0000   300.0000   300.0000   -37.1331    75.4233    -1.9790    -1.4485    20.0000    20.0000    10.0000    20.0000    26.0000    10.0000    16.0000    20.0000    -0.0005     0.0005   159.4164   -41.1662     3.9071    26.9504    14.7000     2.0000     1.0000   300.0160     0.000
     13     2.5000     0.1000    -0.0001    11.9997     26.636     64.000 194311.000     30.000    49.5636   -20.0773   -30.2425   120.0962    -0.1480    -3.0001   -47.0791     0.0000   100.0000     0.0000     1.0000   300.0000   300.0000   -37.2018    75.7275    -1.9790    -1.4485    20.0000    20.0000    10.0000    20.0000    26.0000    10.0000    16.0000    20.0000    -0.0005     0.0005   159.4164   -41.1662     3.9071    26.6997    14.7000     2.0000     1.0000   300.0250     0.000
     14     2.5000     0.1000    -0.0001    11.7499     26.812     58.000 194311.000     30.000    49.7973   -20.0773   -30.3884   120.0962    -0.1480    -3.0001   -46.8422     0.0000   100.0000     0.0000     1.0000   300.0000   300.0000   -37.2696    76.0324    -1.9790    -1.4485    20.0000    20.0000    10.0000    20.0000    26.0000    10.0000    16.0000    20.0000    -0.0005     0.0005   159.4164   -41.1662     3.9070    26.4499    14.7000     2.0000     1.0000   300.0050     0.000
     15     2.5000     0.1000    -0.0001    11.5002     26.696     51.000 194311.000     30.000    50.0343   -20.0773   -30.5364   120.0962    -0.1480    -3.0001   -46.6044     0.0000   100.0000     0.0000     1.0000   300.0000   300.0000   -37.3366    76.3409    -1.9790    -1.4485    20.0000    20.0000    10.0000    20.0000    26.0000    10.0000    16.0000    20.0000    -0.0005     0.0005   159.4164   -41.1662     3.9071    26.2002    14.7000     2.0000     1.0000   300.0110     0.000
     16     2.5000     0.1000    -0.0001    11.2501     26.615     53.000 194311.000     30.000    50.2748   -20.0773   -30.6868   120.0962    -0.1480    -3.0001   -46.3655     0.0000   100.0000     0.0000     1.0000   300.0000   300.0000   -37.4025    76.6489    -1.9790    -1.4485    20.0000    20.0000    10.0000    20.0000    26.0000    10.0000    16.0000    20.0000    -0.0005     0.0005   159.4164   -41.1662     3.9070    25.9501    14.7000     2.0000     1.0000   299.9690     0.000
     17     2.5000     0.1000    -0.0001    11.0000     26.310     48.000 194311.000     30.000    50.5187   -20.0773   -30.8395   120.0962    -0.1480    -3.0001   -46.1257     0.0000   100.0000     0.0000     1.0000   300.0000   300.0000   -37.4675    76.9651    -1.9790    -1.4485    20.0000    20.0000    10.0000    20.0000    26.0000    10.0000    16.0000    20.0000    -0.0005     0.0005   159.4164   -41.1662     3.9071    25.7000    14.7000     2.0000     1.0000   299.9860     0.000
     18     2.5000     0.1000    -0.0001    10.7501     26.263     56.000 194311.000     30.000    50.7662   -20.0773   -30.9943   120.0962    -0.1480    -3.0001   -45.8849     0.0000   100.0000     0.0000     1.0000   300.0000   300.0000   -37.5318    77.2765    -1.9790    -1.4485    20.0000    20.0000    10.0000    20.0000    26.0000    10.0000    16.0000    20.0000    -0.0005     0.0005   159.4164   -41.1662     3.9070    25.4501    14.7000     2.0000     1.0000   300.0100     0.000
     19     2.5001     0.1000    -0.0001    10.5002     26.274     48.000 194311.000     30.000    51.0174   -20.0773   -31.1515   120.0962    -0.1480    -3.0001   -45.6430     0.0000   100.0000     0.0000     1.0000   300.0000   300.0000   -37.5946    77.5981    -1.9790    -1.4485    20.0000    20.0000    10.0000    20.0000    26.0000    10.0000    16.0000    20.0000    -0.0005     0.0005   159.4164   -41.1662     3.9072    25.2002    14.7000     2.0000     1.0000   300.0100     0.000
     20     2.5000     0.1000    -0.0001    10.2503     26.238     42.000 194311.000     30.000    51.2724   -20.0773   -31.3110   120.0962    -0.1480    -3.0001   -45.4002     0.0000   100.0000     0.0000     1.0000   300.0000   300.0000   -37.6565    77.9161    -1.9790    -1.4485    20.0000    20.0000    10.0000    20.0000    26.0000    10.0000    16.0000    20.0000    -0.0005     0.0005   159.4164   -41.1662     3.9071    24.9504    14.7000     2.0000     1.0000   300.0080     0.000
     21     2.5000     0.1000    -0.0001     9.9999     26.469     55.000 194311.000     30.000    51.5312   -20.0773   -31.4735   120.0962    -0.1480    -3.0001   -45.1562     0.0000   100.0000     0.0000     1.0000   300.0000   300.0000   -37.7175    78.2385    -1.9790    -1.4485    20.0000    20.0000    10.0000    20.0000    26.0000    10.0000    16.0000    20.0000    -0.0005     0.0005   159.4164   -41.1662     3.9071    24.6999    14.7000     2.0000     1.0000   300.0110     0.000
     22     2.5000     0.1000    -0.0001     9.7499     26.847     37.000 194311.000     30.000    51.7940   -20.0773   -31.6382   120.0962    -0.1480    -3.0001   -44.9112     0.0000   100.0000     0.0000     1.0000   300.0000   300.0000   -37.7773    78.5637    -1.9790    -1.4485    20.0000    20.0000    10.0000    20.0000    26.0000    10.0000    16.0000    20.0000    -0.0005     0.0005   159.4164   -41.1662     3.9071    24.4499    14.7000     2.0000     1.0000   299.9980     0.000
     23     2.5000     0.1000    -0.0001     9.4998     27.234     45.000 194311.000     30.000    52.0609   -20.0773   -31.8055   120.0962    -0.1480    -3.0001   -44.6652     0.0000   100.0000     0.0000     1.0000   300.0000   300.0000   -37.8361    78.8895    -1.9790    -1.4485    20.0000    20.0000    10.0000    20.0000    26.0000    10.0000    16.0000    20.0000    -0.0005     0.0005   159.4164   -41.1662     3.9070    24.1998    14.7000     2.0000     1.0000   300.0150     0.000
     24     2.5001     0.1000    -0.0001     9.2505     27.364     23.000 194311.000     30.000    52.3319   -20.0773   -31.9751   120.0962    -0.1480    -3.0001   -44.4180     0.0000   100.0000     0.0000     1.0000   300.0000   300.0000   -37.8938    79.2214    -1.9790    -1.4485    20.0000    20.0000    10.0000    20.0000    26.0000    10.0000    16.0000    20.0000    -0.0005     0.0005   159.4164   -41.1662     3.9071    23.9505    14.7000     2.0000     1.0000   299.9590     0.000
     25     2.5000     0.1000    -0.0001     8.9998     27.291     32.000 194311.000     30.000    52.6071   -20.0773   -32.1482   120.0962    -0.1480    -3.0001   -44.1697     0.0000   100.0000     0.0000     1.0000   300.0000   300.0000   -37.9496    79.5531    -1.9790    -1.4485    20.0000    20.0000    10.0000    20.0000    26.0000    10.0000    16.0000    20.0000    -0.0005     0.0005   159.4164   -41.1662     3.9070    23.6998    14.7000     2.0000     1.0000   300.0000     0.000
     26     2.5000     0.1000    -0.0001     8.7501     26.653     24.000 194311.000     30.000    52.8868   -20.0773   -32.3237   120.0962    -0.1480    -3.0001   -43.9203     0.0000   100.0000     0.0000     1.0000   300.0000   300.0000   -38.0049    79.8883    -1.9790    -1.4485    20.0000    20.0000    10.0000    20.0000    26.0000    10.0000    16.0000    20.0000    -0.0005     0.0005   159.4164   -41.1662     3.9070    23.4501    14.7000     2.0000     1.0000   299.9970     0.000
     27     2.5000     0.1000    -0.0001     8.5001     25.990     22.000 194311.000     30.000    53.1710   -20.0773   -32.5021   120.0962    -0.1480    -3.0001   -43.6697     0.0000   100.0000     0.0000     1.0000   300.0000   300.0000   -38.0591    80.2271    -1.9790    -1.4485    20.0000    20.0000    10.0000    20.0000    26.0000    10.0000    16.0000    20.0000    -0.0005     0.0005   159.4164   -41.1662     3.9070    23.2001    14.7000     2.0000     1.0000   300.0090     0.000
     28     2.5001     0.1000    -0.0001     8.2498     25.042     27.000 194311.000     30.000    53.4598   -20.0773   -32.6838   120.0962    -0.1480    -3.0001   -43.4180     0.0000   100.0000     0.0000     1.0000   300.0000   300.0000   -38.1111    80.5720    -1.9790    -1.4485    20.0000    20.0000    10.0000    20.0000    26.0000    10.0000    16.0000    20.0000    -0.0005     0.0005   159.4164   -41.1662     3.9071    22.9498    14.7000     2.0000     1.0000   300.0070     0.000
     29     2.5001     0.1000    -0.0001     8.0001     24.486     26.000 194311.000     30.000    53.7534   -20.0773   -32.8682   120.0962    -0.1480    -3.0001   -43.1651     0.0000   100.0000     0.0000     1.0000   300.0000   300.0000   -38.1624    80.9168    -1.9790    -1.4485    20.0000    20.0000    10.0000    20.0000    26.0000    10.0000    16.0000    20.0000    -0.0005     0.0005   159.4164   -41.1662     3.9071    22.7001    14.7000     2.0000     1.0000   300.0130     0.000
     30     2.5000     0.1000    -0.0001     7.7500     24.031     28.000 194311.000     30.000    54.0519   -20.0773   -33.0560   120.0962    -0.1480    -3.0001   -42.9109     0.0000   100.0000     0.0000     1.0000   300.0000   300.0000   -38.2122    81.2617    -1.9790    -1.4485    20.0000    20.0000    10.0000    20.0000    26.0000    10.0000    16.0000    20.0000    -0.0005     0.0005   159.4164   -41.1662     3.9070    22.4500    14.7000     2.0000     1.0000   299.9950     0.000
     31     2.5000     0.1000    -0.0001     7.5000     24.015     29.000 194311.000     30.000    54.3554   -20.0773   -33.2470   120.0962    -0.1480    -3.0001   -42.6556     0.0000   100.0000     0.0000     1.0000   300.0000   300.0000   -38.2605    81.6161    -1.9790    -1.4485    20.0000    20.0000    10.0000    20.0000    26.0000    10.0000    16.0000    20.0000    -0.0005     0.0005   159.4164   -41.1662     3.9071    22.2000    14.7000     2.0000     1.0000   300.0110     0.000
     32     2.5001     0.1000    -0.0001     7.2503     23.855     29.000 194311.000     30.000    54.6640   -20.0773   -33.4410   120.0962    -0.1480    -3.0001   -42.3989     0.0000   100.0000     0.0000     1.0000   300.0000   300.0000   -38.3071    81.9712    -1.9790    -1.4485    20.0000    20.0000    10.0000    20.0000    26.0000    10.0000    16.0000    20.0000    -0.0005     0.0005   159.4164   -41.1662     3.9071    21.9503    14.7000     2.0000     1.0000   300.0060     0.000
     33     2.5000     0.1000    -0.0001     6.9996     23.641     27.000 194311.000     30.000    54.9780   -20.0773   -33.6393   120.0962    -0.1480    -3.0001   -42.1410     0.0000   100.0000     0.0000     1.0000   300.0000   300.0000   -38.3526    82.3285    -1.9790    -1.4485    20.0000    20.0000    10.0000    20.0000    26.0000    10.0000    16.0000    20.0000    -0.0005     0.0005   159.4164   -41.1662     3.9071    21.6996    14.7000     2.0000     1.0000   299.9970     0.000
     34     2.5000     0.1000    -0.0001     6.7503     23.901     35.000 194311.000     30.000    55.2975   -20.0773   -33.8402   120.0962    -0.1480    -3.0001   -41.8818     0.0000   100.0000     0.0000     1.0000   300.0000   300.0000   -38.3963    82.6893    -1.9790    -1.4485    20.0000    20.0000    10.0000    20.0000    26.0000    10.0000    16.0000    20.0000    -0.0005     0.0005   159.4164   -41.1662     3.9070    21.4503    14.7000     2.0000     1.0000   299.9550     0.000
     35     2.4999     0.1000    -0.0001     6.4999     24.093     22.000 194311.000     30.000    55.6225   -20.0773   -34.0455   120.0962    -0.1480    -3.0001   -41.6214     0.0000   100.0000     0.0000     1.0000   300.0000   300.0000   -38.4383    83.0531    -1.9790    -1.4485    20.0000    20.0000    10.0000    20.0000    26.0000    10.0000    16.0000    20.0000    -0.0005     0.0005   159.4164   -41.1662     3.9070    21.1999    14.7000     2.0000     1.0000   299.9990     0.000
     36     2.5000     0.1000    -0.0001     6.2500     24.285     37.000 194311.000     30.000    55.9535   -20.0773   -34.2541   120.0962    -0.1480    -3.0001   -41.3595     0.0000   100.0000     0.0000     1.0000   300.0000   300.0000   -38.4786    83.4247    -1.9790    -1.4485    20.0000    20.0000    10.0000    20.0000    26.0000    10.0000    16.0000    20.0000    -0.0005     0.0005   159.4164   -41.1662     3.9070    20.9500    14.7000     2.0000     1.0000   300.0140     0.000
     37     2.5000     0.1000    -0.0001     6.0000     24.744     39.000 194311.000     30.000    56.2903   -20.0773   -34.4668   120.0962    -0.1480    -3.0001   -41.0963     0.0000   100.0000     0.0000     1.0000   300.0000   300.0000   -38.5168    83.8001    -1.9790    -1.4485    20.0000    20.0000    10.0000    20.0000    26.0000    10.0000    16.0000    20.0000    -0.0005     0.0005   159.4164   -41.1662     3.9071    20.7000    14.7000     2.0000     1.0000   300.0100     0.000
# Sum of Counts = 1397
# Center of Mass = 10.730885+/-0.411463
# Full Width Half-Maximum = 4.984109+/-0.174181
# 1:03:22 AM  9/9/2024   scan completed.
