# scan = 174
# date = 9/8/2024
# time = 12:23:56 PM
# proposal = 32905
# experiment = Effects of electric field on phonon dispersion and lifetimes of poled PMN-30PT
# experiment_number = 812
# command = scan h 2.5 k 0.45 l 0 e 15 0.5 0.25 preset mcu 30
# builtin_command = scan h 2.5 k 0.45 l 0 e 15 0.5 0.25 preset mcu 30
# users = George Yumnam, Michael Manley, Puspa Upreti, Raphael Hermann, SHAOFEI WANG
# local_contact = Songxue Chi
# scan_title = (2.5,0.45,0) X to M transverse mode scan at 390 V after voltage breaks
# monochromator = PG002
# analyzer = Pg002
# sense = -+-
# collimation = 48-40-40-120
# samplename = PMN-30PT
# sampletype = crystal
# samplemosaic = 30.000000
# latticeconstants = 4.023634,4.023634,4.023634,90.000000,90.000000,90.000000
# ubmatrix = -0.008055,-0.248252,-0.008588,-0.248328,0.007840,0.006285,-0.006007,0.008785,-0.248304
# mode = 0
# plane_normal = 0.034555,-0.025290,0.999083
# ubconf = UB04Sep2024_115522AM.ini
# preset_type = normal 
# preset_channel = mcu
# preset_value = 30.000000
# def_x = e
# def_y = detector
# col_headers = 
#   Pt.          h          k          l          e       time   detector    monitor        mcu focal_length         m1         m2   mcrystal       marc     mtrans     mfocus       ampl         dc       freq     output       temp     temp_2         s1         s2        sgl        sgu        bbb        bbl        bbr        bbt        bab        bal        bar        bat        stl        stu         a1         a2          q         ei         ef   ampl_out output_state        vti     sample
      1     2.4999     0.4500    -0.0001    15.0019     27.355     30.000 194311.000     30.000    46.9938   -20.0773   -28.6389   120.0962    -0.1480    -3.0001   -49.8518     0.0000   390.0000     0.0000     1.0000   300.0000   300.0000   -28.0400    73.5985    -1.9790    -1.4485    20.0000    20.0000    10.0000    20.0000    26.0000    10.0000    16.0000    20.0000    -0.0005     0.0005   159.4164   -41.1662     3.9665    29.7019    14.7000     2.0000     1.0000   300.0130     0.000
      2     2.5000     0.4500    -0.0001    14.7496     27.001     19.000 194311.000     30.000    47.1929   -20.0773   -28.7640   120.0962    -0.1480    -3.0001   -49.6254     0.0000   390.0000     0.0000     1.0000   300.0000   300.0000   -28.1109    73.8907    -1.9790    -1.4485    20.0000    20.0000    10.0000    20.0000    26.0000    10.0000    16.0000    20.0000    -0.0005     0.0005   159.4164   -41.1662     3.9666    29.4496    14.7000     2.0000     1.0000   300.0290     0.000
      3     2.5001     0.4500    -0.0001    14.4997     26.663     32.000 194311.000     30.000    47.3944   -20.0773   -28.8894   120.0962    -0.1480    -3.0001   -49.3982     0.0000   390.0000     0.0000     1.0000   300.0000   300.0000   -28.1807    74.1830    -1.9790    -1.4485    20.0000    20.0000    10.0000    20.0000    26.0000    10.0000    16.0000    20.0000    -0.0005     0.0005   159.4164   -41.1662     3.9668    29.1997    14.7000     2.0000     1.0000   300.0190     0.000
      4     2.5000     0.4500    -0.0001    14.2507     26.256     27.000 194311.000     30.000    47.5986   -20.0773   -29.0161   120.0962    -0.1480    -3.0001   -49.1702     0.0000   390.0000     0.0000     1.0000   300.0000   300.0000   -28.2499    74.4704    -1.9790    -1.4485    20.0000    20.0000    10.0000    20.0000    26.0000    10.0000    16.0000    20.0000    -0.0005     0.0005   159.4164   -41.1662     3.9667    28.9508    14.7000     2.0000     1.0000   299.9960     0.000
      5     2.5001     0.4500    -0.0001    13.9994     25.952     31.000 194311.000     30.000    47.8055   -20.0773   -29.1456   120.0962    -0.1480    -3.0001   -48.9414     0.0000   390.0000     0.0000     1.0000   300.0000   300.0000   -28.3186    74.7666    -1.9790    -1.4485    20.0000    20.0000    10.0000    20.0000    26.0000    10.0000    16.0000    20.0000    -0.0005     0.0005   159.4164   -41.1662     3.9668    28.6995    14.7000     2.0000     1.0000   299.9890     0.000
      6     2.5000     0.4500    -0.0001    13.7502     25.625     32.000 194311.000     30.000    48.0151   -20.0773   -29.2759   120.0962    -0.1480    -3.0001   -48.7117     0.0000   390.0000     0.0000     1.0000   300.0000   300.0000   -28.3856    75.0572    -1.9790    -1.4485    20.0000    20.0000    10.0000    20.0000    26.0000    10.0000    16.0000    20.0000    -0.0005     0.0005   159.4164   -41.1662     3.9667    28.4502    14.7000     2.0000     1.0000   299.9920     0.000
      7     2.5000     0.4500    -0.0001    13.5004     25.349     37.000 194311.000     30.000    48.2274   -20.0773   -29.4082   120.0962    -0.1480    -3.0001   -48.4811     0.0000   390.0000     0.0000     1.0000   300.0000   300.0000   -28.4526    75.3542    -1.9790    -1.4485    20.0000    20.0000    10.0000    20.0000    26.0000    10.0000    16.0000    20.0000    -0.0005     0.0005   159.4164   -41.1662     3.9667    28.2004    14.7000     2.0000     1.0000   300.0100     0.000
      8     2.5000     0.4500    -0.0001    13.2496     25.350     27.000 194311.000     30.000    48.4427   -20.0773   -29.5428   120.0962    -0.1480    -3.0001   -48.2497     0.0000   390.0000     0.0000     1.0000   300.0000   300.0000   -28.5190    75.6521    -1.9790    -1.4485    20.0000    20.0000    10.0000    20.0000    26.0000    10.0000    16.0000    20.0000    -0.0005     0.0005   159.4164   -41.1662     3.9667    27.9496    14.7000     2.0000     1.0000   299.9290     0.000
      9     2.5000     0.4500    -0.0001    13.0000     25.528     26.000 194311.000     30.000    48.6608   -20.0773   -29.6786   120.0962    -0.1480    -3.0001   -48.0174     0.0000   390.0000     0.0000     1.0000   300.0000   300.0000   -28.5836    75.9523    -1.9790    -1.4485    20.0000    20.0000    10.0000    20.0000    26.0000    10.0000    16.0000    20.0000    -0.0005     0.0005   159.4164   -41.1662     3.9667    27.7000    14.7000     2.0000     1.0000   300.0120     0.000
     10     2.5000     0.4500    -0.0001    12.7500     25.884     35.000 194311.000     30.000    48.8819   -20.0773   -29.8166   120.0962    -0.1480    -3.0001   -47.7842     0.0000   390.0000     0.0000     1.0000   300.0000   300.0000   -28.6478    76.2529    -1.9790    -1.4485    20.0000    20.0000    10.0000    20.0000    26.0000    10.0000    16.0000    20.0000    -0.0005     0.0005   159.4164   -41.1662     3.9666    27.4500    14.7000     2.0000     1.0000   300.0070     0.000
     11     2.5000     0.4500    -0.0001    12.4998     26.265     39.000 194311.000     30.000    49.1060   -20.0773   -29.9566   120.0962    -0.1480    -3.0001   -47.5501     0.0000   390.0000     0.0000     1.0000   300.0000   300.0000   -28.7116    76.5592    -1.9790    -1.4485    20.0000    20.0000    10.0000    20.0000    26.0000    10.0000    16.0000    20.0000    -0.0005     0.0005   159.4164   -41.1662     3.9667    27.1998    14.7000     2.0000     1.0000   300.0070     0.000
     12     2.5000     0.4500    -0.0001    12.2504     26.559     41.000 194311.000     30.000    49.3332   -20.0773   -30.0982   120.0962    -0.1480    -3.0001   -47.3151     0.0000   390.0000     0.0000     1.0000   300.0000   300.0000   -28.7740    76.8633    -1.9790    -1.4485    20.0000    20.0000    10.0000    20.0000    26.0000    10.0000    16.0000    20.0000    -0.0005     0.0005   159.4164   -41.1662     3.9666    26.9504    14.7000     2.0000     1.0000   300.0040     0.000
     13     2.5001     0.4500    -0.0001    11.9997     26.852     42.000 194311.000     30.000    49.5636   -20.0773   -30.2425   120.0962    -0.1480    -3.0001   -47.0791     0.0000   390.0000     0.0000     1.0000   300.0000   300.0000   -28.8351    77.1771    -1.9790    -1.4485    20.0000    20.0000    10.0000    20.0000    26.0000    10.0000    16.0000    20.0000    -0.0005     0.0005   159.4164   -41.1662     3.9668    26.6997    14.7000     2.0000     1.0000   299.9660     0.000
     14     2.5000     0.4500    -0.0001    11.7500     26.907     54.000 194311.000     30.000    49.7973   -20.0773   -30.3884   120.0962    -0.1480    -3.0001   -46.8422     0.0000   390.0000     0.0000     1.0000   300.0000   300.0000   -28.8961    77.4832    -1.9790    -1.4485    20.0000    20.0000    10.0000    20.0000    26.0000    10.0000    16.0000    20.0000    -0.0005     0.0005   159.4164   -41.1662     3.9666    26.4500    14.7000     2.0000     1.0000   300.0060     0.000
     15     2.5001     0.4500    -0.0001    11.5001     26.758     31.000 194311.000     30.000    50.0343   -20.0773   -30.5364   120.0962    -0.1480    -3.0001   -46.6044     0.0000   390.0000     0.0000     1.0000   300.0000   300.0000   -28.9556    77.7999    -1.9790    -1.4485    20.0000    20.0000    10.0000    20.0000    26.0000    10.0000    16.0000    20.0000    -0.0005     0.0005   159.4164   -41.1662     3.9668    26.2001    14.7000     2.0000     1.0000   300.0270     0.000
     16     2.5000     0.4500    -0.0001    11.2501     26.663     33.000 194311.000     30.000    50.2748   -20.0773   -30.6868   120.0962    -0.1480    -3.0001   -46.3655     0.0000   390.0000     0.0000     1.0000   300.0000   300.0000   -29.0143    78.1137    -1.9790    -1.4485    20.0000    20.0000    10.0000    20.0000    26.0000    10.0000    16.0000    20.0000    -0.0005     0.0005   159.4164   -41.1662     3.9667    25.9501    14.7000     2.0000     1.0000   300.0170     0.000
     17     2.5000     0.4500    -0.0001    11.0000     26.195     46.000 194311.000     30.000    50.5187   -20.0773   -30.8395   120.0962    -0.1480    -3.0001   -46.1257     0.0000   390.0000     0.0000     1.0000   300.0000   300.0000   -29.0716    78.4300    -1.9790    -1.4485    20.0000    20.0000    10.0000    20.0000    26.0000    10.0000    16.0000    20.0000    -0.0005     0.0005   159.4164   -41.1662     3.9666    25.7000    14.7000     2.0000     1.0000   299.9970     0.000
     18     2.5000     0.4500    -0.0001    10.7501     26.300     66.000 194311.000     30.000    50.7662   -20.0773   -30.9943   120.0962    -0.1480    -3.0001   -45.8849     0.0000   390.0000     0.0000     1.0000   300.0000   300.0000   -29.1284    78.7515    -1.9790    -1.4485    20.0000    20.0000    10.0000    20.0000    26.0000    10.0000    16.0000    20.0000    -0.0005     0.0005   159.4164   -41.1662     3.9667    25.4501    14.7000     2.0000     1.0000   299.9490     0.000
     19     2.5000     0.4500    -0.0001    10.5002     26.171     58.000 194311.000     30.000    51.0174   -20.0773   -31.1515   120.0962    -0.1480    -3.0001   -45.6430     0.0000   390.0000     0.0000     1.0000   300.0000   300.0000   -29.1839    79.0724    -1.9790    -1.4485    20.0000    20.0000    10.0000    20.0000    26.0000    10.0000    16.0000    20.0000    -0.0005     0.0005   159.4164   -41.1662     3.9666    25.2002    14.7000     2.0000     1.0000   300.0140     0.000
     20     2.5000     0.4500    -0.0001    10.2503     26.295     73.000 194311.000     30.000    51.2724   -20.0773   -31.3111   120.0962    -0.1480    -3.0001   -45.4002     0.0000   390.0000     0.0000     1.0000   300.0000   300.0000   -29.2378    79.4003    -1.9790    -1.4485    20.0000    20.0000    10.0000    20.0000    26.0000    10.0000    16.0000    20.0000    -0.0005     0.0005   159.4164   -41.1662     3.9667    24.9503    14.7000     2.0000     1.0000   299.9930     0.000
     21     2.5000     0.4500    -0.0001     9.9999     26.465     78.000 194311.000     30.000    51.5312   -20.0773   -31.4735   120.0962    -0.1480    -3.0001   -45.1562     0.0000   390.0000     0.0000     1.0000   300.0000   300.0000   -29.2911    79.7279    -1.9790    -1.4485    20.0000    20.0000    10.0000    20.0000    26.0000    10.0000    16.0000    20.0000    -0.0005     0.0005   159.4164   -41.1662     3.9667    24.6999    14.7000     2.0000     1.0000   300.0030     0.000
     22     2.5000     0.4500    -0.0001     9.7499     26.781     53.000 194311.000     30.000    51.7940   -20.0773   -31.6382   120.0962    -0.1480    -3.0001   -44.9112     0.0000   390.0000     0.0000     1.0000   300.0000   300.0000   -29.3434    80.0564    -1.9790    -1.4485    20.0000    20.0000    10.0000    20.0000    26.0000    10.0000    16.0000    20.0000    -0.0005     0.0005   159.4164   -41.1662     3.9666    24.4499    14.7000     2.0000     1.0000   300.0000     0.000
     23     2.5001     0.4500    -0.0001     9.4998     27.150     84.000 194311.000     30.000    52.0609   -20.0773   -31.8055   120.0962    -0.1480    -3.0001   -44.6652     0.0000   390.0000     0.0000     1.0000   300.0000   300.0000   -29.3941    80.3950    -1.9790    -1.4485    20.0000    20.0000    10.0000    20.0000    26.0000    10.0000    16.0000    20.0000    -0.0005     0.0005   159.4164   -41.1662     3.9668    24.1998    14.7000     2.0000     1.0000   299.9440     0.000
     24     2.5000     0.4500    -0.0001     9.2502     27.365     58.000 194311.000     30.000    52.3319   -20.0773   -31.9752   120.0962    -0.1480    -3.0001   -44.4180     0.0000   390.0000     0.0000     1.0000   300.0000   300.0000   -29.4429    80.7287    -1.9790    -1.4485    20.0000    20.0000    10.0000    20.0000    26.0000    10.0000    16.0000    20.0000    -0.0005     0.0005   159.4164   -41.1662     3.9667    23.9503    14.7000     2.0000     1.0000   299.9990     0.000
     25     2.5000     0.4500    -0.0001     9.0000     27.287     68.000 194311.000     30.000    52.6071   -20.0773   -32.1481   120.0962    -0.1480    -3.0001   -44.1697     0.0000   390.0000     0.0000     1.0000   300.0000   300.0000   -29.4915    81.0661    -1.9790    -1.4485    20.0000    20.0000    10.0000    20.0000    26.0000    10.0000    16.0000    20.0000    -0.0005     0.0005   159.4164   -41.1662     3.9666    23.7000    14.7000     2.0000     1.0000   300.0080     0.000
     26     2.5000     0.4500    -0.0001     8.7501     26.798     66.000 194311.000     30.000    52.8868   -20.0773   -32.3237   120.0962    -0.1480    -3.0001   -43.9203     0.0000   390.0000     0.0000     1.0000   300.0000   300.0000   -29.5385    81.4101    -1.9790    -1.4485    20.0000    20.0000    10.0000    20.0000    26.0000    10.0000    16.0000    20.0000    -0.0005     0.0005   159.4164   -41.1662     3.9667    23.4501    14.7000     2.0000     1.0000   300.0080     0.000
     27     2.5000     0.4500    -0.0001     8.5000     25.884     64.000 194311.000     30.000    53.1710   -20.0773   -32.5022   120.0962    -0.1480    -3.0001   -43.6697     0.0000   390.0000     0.0000     1.0000   300.0000   300.0000   -29.5838    81.7562    -1.9790    -1.4485    20.0000    20.0000    10.0000    20.0000    26.0000    10.0000    16.0000    20.0000    -0.0005     0.0005   159.4164   -41.1662     3.9667    23.2000    14.7000     2.0000     1.0000   300.0140     0.000
     28     2.5000     0.4500    -0.0001     8.2499     25.022     56.000 194311.000     30.000    53.4598   -20.0773   -32.6837   120.0962    -0.1480    -3.0001   -43.4180     0.0000   390.0000     0.0000     1.0000   300.0000   300.0000   -29.6275    82.1048    -1.9790    -1.4485    20.0000    20.0000    10.0000    20.0000    26.0000    10.0000    16.0000    20.0000    -0.0005     0.0005   159.4164   -41.1662     3.9667    22.9499    14.7000     2.0000     1.0000   299.9460     0.000
     29     2.4999     0.4500    -0.0001     8.0000     24.468     57.000 194311.000     30.000    53.7534   -20.0773   -32.8682   120.0962    -0.1480    -3.0001   -43.1651     0.0000   390.0000     0.0000     1.0000   300.0000   300.0000   -29.6704    82.4544    -1.9790    -1.4485    20.0000    20.0000    10.0000    20.0000    26.0000    10.0000    16.0000    20.0000    -0.0005     0.0005   159.4164   -41.1662     3.9666    22.7000    14.7000     2.0000     1.0000   299.9980     0.000
     30     2.5001     0.4500    -0.0001     7.7500     24.017     66.000 194311.000     30.000    54.0519   -20.0773   -33.0559   120.0962    -0.1480    -3.0001   -42.9109     0.0000   390.0000     0.0000     1.0000   300.0000   300.0000   -29.7111    82.8143    -1.9790    -1.4485    20.0000    20.0000    10.0000    20.0000    26.0000    10.0000    16.0000    20.0000    -0.0005     0.0005   159.4164   -41.1662     3.9668    22.4500    14.7000     2.0000     1.0000   300.0120     0.000
     31     2.5001     0.4500    -0.0001     7.4998     23.830     69.000 194311.000     30.000    54.3554   -20.0773   -33.2471   120.0962    -0.1480    -3.0001   -42.6556     0.0000   390.0000     0.0000     1.0000   300.0000   300.0000   -29.7509    83.1739    -1.9790    -1.4485    20.0000    20.0000    10.0000    20.0000    26.0000    10.0000    16.0000    20.0000    -0.0005     0.0005   159.4164   -41.1662     3.9668    22.1998    14.7000     2.0000     1.0000   299.9940     0.000
     32     2.5000     0.4500    -0.0001     7.2503     23.847     60.000 194311.000     30.000    54.6640   -20.0773   -33.4410   120.0962    -0.1480    -3.0001   -42.3989     0.0000   390.0000     0.0000     1.0000   300.0000   300.0000   -29.7886    83.5336    -1.9790    -1.4485    20.0000    20.0000    10.0000    20.0000    26.0000    10.0000    16.0000    20.0000    -0.0005     0.0005   159.4164   -41.1662     3.9667    21.9503    14.7000     2.0000     1.0000   300.0090     0.000
     33     2.5000     0.4500    -0.0001     6.9997     23.755     69.000 194311.000     30.000    54.9780   -20.0773   -33.6393   120.0962    -0.1480    -3.0001   -42.1410     0.0000   390.0000     0.0000     1.0000   300.0000   300.0000   -29.8246    83.8995    -1.9790    -1.4485    20.0000    20.0000    10.0000    20.0000    26.0000    10.0000    16.0000    20.0000    -0.0005     0.0005   159.4164   -41.1662     3.9667    21.6997    14.7000     2.0000     1.0000   300.0060     0.000
     34     2.5000     0.4500    -0.0001     6.7502     23.860     74.000 194311.000     30.000    55.2975   -20.0773   -33.8402   120.0962    -0.1480    -3.0001   -41.8818     0.0000   390.0000     0.0000     1.0000   300.0000   300.0000   -29.8591    84.2678    -1.9790    -1.4485    20.0000    20.0000    10.0000    20.0000    26.0000    10.0000    16.0000    20.0000    -0.0005     0.0005   159.4164   -41.1662     3.9666    21.4502    14.7000     2.0000     1.0000   300.0180     0.000
     35     2.5000     0.4500    -0.0001     6.4999     24.026     85.000 194311.000     30.000    55.6225   -20.0773   -34.0455   120.0962    -0.1480    -3.0001   -41.6214     0.0000   390.0000     0.0000     1.0000   300.0000   300.0000   -29.8914    84.6432    -1.9790    -1.4485    20.0000    20.0000    10.0000    20.0000    26.0000    10.0000    16.0000    20.0000    -0.0005     0.0005   159.4164   -41.1662     3.9667    21.1999    14.7000     2.0000     1.0000   299.9720     0.000
     36     2.5000     0.4500    -0.0001     6.2501     24.445     74.000 194311.000     30.000    55.9535   -20.0773   -34.2540   120.0962    -0.1480    -3.0001   -41.3595     0.0000   390.0000     0.0000     1.0000   300.0000   300.0000   -29.9225    85.0204    -1.9790    -1.4485    20.0000    20.0000    10.0000    20.0000    26.0000    10.0000    16.0000    20.0000    -0.0005     0.0005   159.4164   -41.1662     3.9667    20.9501    14.7000     2.0000     1.0000   300.0110     0.000
     37     2.5001     0.4500    -0.0001     6.0000     24.806     76.000 194311.000     30.000    56.2903   -20.0773   -34.4667   120.0962    -0.1480    -3.0001   -41.0963     0.0000   390.0000     0.0000     1.0000   300.0000   300.0000   -29.9511    85.4056    -1.9790    -1.4485    20.0000    20.0000    10.0000    20.0000    26.0000    10.0000    16.0000    20.0000    -0.0005     0.0005   159.4164   -41.1662     3.9668    20.7001    14.7000     2.0000     1.0000   300.0170     0.000
     38     2.5001     0.4499    -0.0001     5.7501     25.203     68.000 194311.000     30.000    56.6333   -20.0773   -34.6834   120.0962    -0.1480    -3.0001   -40.8317     0.0000   390.0000     0.0000     1.0000   300.0000   300.0000   -29.9782    85.7924    -1.9790    -1.4485    20.0000    20.0000    10.0000    20.0000    26.0000    10.0000    16.0000    20.0000    -0.0005     0.0005   159.4164   -41.1662     3.9668    20.4501    14.7000     2.0000     1.0000   300.0030     0.000
     39     2.5001     0.4500    -0.0001     5.4999     25.539     68.000 194311.000     30.000    56.9827   -20.0773   -34.9044   120.0962    -0.1480    -3.0001   -40.5656     0.0000   390.0000     0.0000     1.0000   300.0000   300.0000   -30.0026    86.1830    -1.9790    -1.4485    20.0000    20.0000    10.0000    20.0000    26.0000    10.0000    16.0000    20.0000    -0.0005     0.0005   159.4164   -41.1662     3.9668    20.1999    14.7000     2.0000     1.0000   299.9950     0.000
     40     2.5001     0.4500    -0.0001     5.2501     25.909     59.000 194311.000     30.000    57.3387   -20.0773   -35.1292   120.0962    -0.1480    -3.0001   -40.2982     0.0000   390.0000     0.0000     1.0000   300.0000   300.0000   -30.0254    86.5775    -1.9790    -1.4485    20.0000    20.0000    10.0000    20.0000    26.0000    10.0000    16.0000    20.0000    -0.0005     0.0005   159.4164   -41.1662     3.9668    19.9501    14.7000     2.0000     1.0000   300.0080     0.000
     41     2.5001     0.4500    -0.0001     5.0000     26.084     69.000 194311.000     30.000    57.7013   -20.0773   -35.3589   120.0962    -0.1480    -3.0001   -40.0292     0.0000   390.0000     0.0000     1.0000   300.0000   300.0000   -30.0456    86.9775    -1.9790    -1.4485    20.0000    20.0000    10.0000    20.0000    26.0000    10.0000    16.0000    20.0000    -0.0005     0.0005   159.4164   -41.1662     3.9668    19.7000    14.7000     2.0000     1.0000   300.0070     0.000
     42     2.4999     0.4507    -0.0001     4.7501     26.355     54.000 194311.000     30.000    58.0709   -20.0773   -35.5929   120.0962    -0.1480    -3.0001   -39.7588     0.0000   390.0000     0.0000     1.0000   300.0000   300.0000   -30.0456    87.3826    -1.9790    -1.4485    20.0000    20.0000    10.0000    20.0000    26.0000    10.0000    16.0000    20.0000    -0.0005     0.0005   159.4164   -41.1662     3.9668    19.4501    14.7000     2.0000     1.0000   299.9390     0.000
     43     2.5001     0.4500    -0.0001     4.5000     26.350     63.000 194311.000     30.000    58.4478   -20.0773   -35.8318   120.0962    -0.1480    -3.0001   -39.4868     0.0000   390.0000     0.0000     1.0000   300.0000   300.0000   -30.0796    87.7918    -1.9790    -1.4485    20.0000    20.0000    10.0000    20.0000    26.0000    10.0000    16.0000    20.0000    -0.0005     0.0005   159.4164   -41.1662     3.9668    19.2000    14.7000     2.0000     1.0000   300.0070     0.000
     44     2.4999     0.4506    -0.0001     4.2501     26.678     54.000 194311.000     30.000    58.8321   -20.0773   -36.0753   120.0962    -0.1480    -3.0001   -39.2133     0.0000   390.0000     0.0000     1.0000   300.0000   300.0000   -30.0796    88.2042    -1.9790    -1.4485    20.0000    20.0000    10.0000    20.0000    26.0000    10.0000    16.0000    20.0000    -0.0005     0.0005   159.4164   -41.1662     3.9667    18.9501    14.7000     2.0000     1.0000   300.0000     0.000
     45     2.5000     0.4500    -0.0001     3.9999     26.879     54.000 194311.000     30.000    59.2240   -20.0773   -36.3242   120.0962    -0.1480    -3.0001   -38.9382     0.0000   390.0000     0.0000     1.0000   300.0000   300.0000   -30.1030    88.6237    -1.9790    -1.4485    20.0000    20.0000    10.0000    20.0000    26.0000    10.0000    16.0000    20.0000    -0.0005     0.0005   159.4164   -41.1662     3.9667    18.6999    14.7000     2.0000     1.0000   300.0180     0.000
     46     2.4999     0.4504    -0.0001     3.7501     27.339     61.000 194311.000     30.000    59.6240   -20.0773   -36.5779   120.0962    -0.1480    -3.0001   -38.6614     0.0000   390.0000     0.0000     1.0000   300.0000   300.0000   -30.1030    89.0481    -1.9790    -1.4485    20.0000    20.0000    10.0000    20.0000    26.0000    10.0000    16.0000    20.0000    -0.0005     0.0005   159.4164   -41.1662     3.9666    18.4501    14.7000     2.0000     1.0000   299.9990     0.000
     47     2.4999     0.4506    -0.0001     3.5000     27.944     57.000 194311.000     30.000    60.0321   -20.0773   -36.8374   120.0962    -0.1480    -3.0001   -38.3830     0.0000   390.0000     0.0000     1.0000   300.0000   300.0000   -30.1030    89.4800    -1.9790    -1.4485    20.0000    20.0000    10.0000    20.0000    26.0000    10.0000    16.0000    20.0000    -0.0005     0.0005   159.4164   -41.1662     3.9666    18.2000    14.7000     2.0000     1.0000   299.9520     0.000
     48     2.4999     0.4506    -0.0001     3.2499     29.129     41.000 194311.000     30.000    60.4487   -20.0773   -37.1024   120.0962    -0.1480    -3.0001   -38.1029     0.0000   390.0000     0.0000     1.0000   300.0000   300.0000   -30.1030    89.9192    -1.9790    -1.4485    20.0000    20.0000    10.0000    20.0000    26.0000    10.0000    16.0000    20.0000    -0.0005     0.0005   159.4164   -41.1662     3.9667    17.9499    14.7000     2.0000     1.0000   300.0040     0.000
     49     2.4999     0.4506    -0.0001     3.0002     29.913     46.000 194311.000     30.000    60.8740   -20.0773   -37.3727   120.0962    -0.1480    -3.0001   -37.8211     0.0000   390.0000     0.0000     1.0000   300.0000   300.0000   -30.1030    90.3625    -1.9790    -1.4485    20.0000    20.0000    10.0000    20.0000    26.0000    10.0000    16.0000    20.0000    -0.0005     0.0005   159.4164   -41.1662     3.9667    17.7002    14.7000     2.0000     1.0000   300.0260     0.000
     50     2.4999     0.4504    -0.0001     2.7499     29.891     40.000 194311.000     30.000    61.3086   -20.0773   -37.6498   120.0962    -0.1480    -3.0001   -37.5375     0.0000   390.0000     0.0000     1.0000   300.0000   300.0000   -30.1030    90.8121    -1.9790    -1.4485    20.0000    20.0000    10.0000    20.0000    26.0000    10.0000    16.0000    20.0000    -0.0005     0.0005   159.4164   -41.1662     3.9667    17.4499    14.7000     2.0000     1.0000   299.9520     0.000
     51     2.5000     0.4501    -0.0001     2.5000     29.218     44.000 194311.000     30.000    61.7525   -20.0773   -37.9328   120.0962    -0.1480    -3.0001   -37.2522     0.0000   390.0000     0.0000     1.0000   300.0000   300.0000   -30.1030    91.2670    -1.9790    -1.4485    20.0000    20.0000    10.0000    20.0000    26.0000    10.0000    16.0000    20.0000    -0.0005     0.0005   159.4164   -41.1662     3.9666    17.2000    14.7000     2.0000     1.0000   300.0200     0.000
     52     2.5000     0.4500    -0.0001     2.2499     29.334     35.000 194311.000     30.000    62.2063   -20.0773   -38.2224   120.0962    -0.1480    -3.0001   -36.9649     0.0000   390.0000     0.0000     1.0000   300.0000   300.0000   -30.0943    91.7320    -1.9790    -1.4485    20.0000    20.0000    10.0000    20.0000    26.0000    10.0000    16.0000    20.0000    -0.0005     0.0005   159.4164   -41.1662     3.9667    16.9499    14.7000     2.0000     1.0000   300.0270     0.000
     53     2.5000     0.4500    -0.0001     2.0000     29.864     32.000 194311.000     30.000    62.6702   -20.0773   -38.5184   120.0962    -0.1480    -3.0001   -36.6758     0.0000   390.0000     0.0000     1.0000   300.0000   300.0000   -30.0798    92.2031    -1.9790    -1.4485    20.0000    20.0000    10.0000    20.0000    26.0000    10.0000    16.0000    20.0000    -0.0005     0.0005   159.4164   -41.1662     3.9667    16.7000    14.7000     2.0000     1.0000   300.0220     0.000
     54     2.5000     0.4500    -0.0001     1.7500     30.028     29.000 194311.000     30.000    63.1445   -20.0773   -38.8217   120.0962    -0.1480    -3.0001   -36.3848     0.0000   390.0000     0.0000     1.0000   300.0000   300.0000   -30.0613    92.6779    -1.9790    -1.4485    20.0000    20.0000    10.0000    20.0000    26.0000    10.0000    16.0000    20.0000    -0.0005     0.0005   159.4164   -41.1662     3.9666    16.4500    14.7000     2.0000     1.0000   300.0190     0.000
     55     2.5000     0.4500    -0.0001     1.5000     30.564     33.000 194311.000     30.000    63.6299   -20.0773   -39.1322   120.0962    -0.1480    -3.0001   -36.0918     0.0000   390.0000     0.0000     1.0000   300.0000   300.0000   -30.0390    93.1653    -1.9790    -1.4485    20.0000    20.0000    10.0000    20.0000    26.0000    10.0000    16.0000    20.0000    -0.0005     0.0005   159.4164   -41.1662     3.9667    16.2000    14.7000     2.0000     1.0000   300.0140     0.000
     56     2.5000     0.4500    -0.0001     1.2500     31.628     39.000 194311.000     30.000    64.1267   -20.0773   -39.4503   120.0962    -0.1480    -3.0001   -35.7968     0.0000   390.0000     0.0000     1.0000   300.0000   300.0000   -30.0120    93.6562    -1.9790    -1.4485    20.0000    20.0000    10.0000    20.0000    26.0000    10.0000    16.0000    20.0000    -0.0005     0.0005   159.4164   -41.1662     3.9666    15.9500    14.7000     2.0000     1.0000   299.9970     0.000
     57     2.5000     0.4500    -0.0001     1.0000     33.067     60.000 194311.000     30.000    64.6352   -20.0773   -39.7763   120.0962    -0.1480    -3.0001   -35.4997     0.0000   390.0000     0.0000     1.0000   300.0000   300.0000   -29.9812    94.1609    -1.9790    -1.4485    20.0000    20.0000    10.0000    20.0000    26.0000    10.0000    16.0000    20.0000    -0.0005     0.0005   159.4164   -41.1662     3.9667    15.7000    14.7000     2.0000     1.0000   300.0340     0.000
     58     2.4999     0.4500    -0.0001     0.7500     33.686    117.000 194311.000     30.000    65.1560   -20.0773   -40.1106   120.0962    -0.1480    -3.0001   -35.2005     0.0000   390.0000     0.0000     1.0000   300.0000   300.0000   -29.9458    94.6674    -1.9790    -1.4485    20.0000    20.0000    10.0000    20.0000    26.0000    10.0000    16.0000    20.0000    -0.0005     0.0005   159.4164   -41.1662     3.9666    15.4500    14.7000     2.0000     1.0000   300.0050     0.000
     59     2.5001     0.4500    -0.0001     0.5001     32.932    250.000 194311.000     30.000    65.6897   -20.0773   -40.4533   120.0962    -0.1480    -3.0001   -34.8991     0.0000   390.0000     0.0000     1.0000   300.0000   300.0000   -29.9055    95.1909    -1.9790    -1.4485    20.0000    20.0000    10.0000    20.0000    26.0000    10.0000    16.0000    20.0000    -0.0005     0.0005   159.4164   -41.1662     3.9667    15.2001    14.7000     2.0000     1.0000   299.9880     0.000
# Sum of Counts = 3309
# Center of Mass = 6.833745+/-0.182150
# Full Width Half-Maximum = 8.096321+/-0.136041
# 1:01:00 PM  9/8/2024   scan completed.
