# scan = 94
# date = 9/6/2024
# time = 8:32:24 AM
# proposal = 32905
# experiment = Effects of electric field on phonon dispersion and lifetimes of poled PMN-30PT
# experiment_number = 812
# command = scan h 2.5 k 0.55 l 0 e 15 0 0.25 preset mcu 30
# builtin_command = scan h 2.5 k 0.55 l 0 e 15 0 0.25 preset mcu 30
# users = George Yumnam, Michael Manley, Puspa Upreti, Raphael Hermann, SHAOFEI WANG
# local_contact = Songxue Chi
# scan_title = (2.5,0.55,0) X to M transverse mode scan at E 240 V
# monochromator = PG002
# analyzer = Pg002
# sense = -+-
# collimation = 48-40-40-120
# samplename = PMN-30PT
# sampletype = crystal
# samplemosaic = 30.000000
# latticeconstants = 4.023634,4.023634,4.023634,90.000000,90.000000,90.000000
# ubmatrix = -0.008055,-0.248252,-0.008588,-0.248328,0.007840,0.006285,-0.006007,0.008785,-0.248304
# mode = 0
# plane_normal = 0.034555,-0.025290,0.999083
# ubconf = UB04Sep2024_115522AM.ini
# preset_type = normal 
# preset_channel = mcu
# preset_value = 30.000000
# def_x = e
# def_y = detector
# col_headers = 
#   Pt.          h          k          l          e       time   detector    monitor        mcu focal_length         m1         m2   mcrystal       marc     mtrans     mfocus       ampl         dc       freq     output       temp     temp_2         s1         s2        sgl        sgu        bbb        bbl        bbr        bbt        bab        bal        bar        bat        stl        stu         a1         a2          q         ei         ef   ampl_out output_state        vti     sample
      1     2.5000     0.5500    -0.0001    15.0018     27.574     35.000 194311.000     30.000    46.9938   -20.0773   -28.6390   120.0962    -0.1480    -3.0001   -49.8518     0.0000   240.0000     0.0000     1.0000   300.0000   300.0000   -25.6406    74.3241    -1.9790    -1.4485    20.0000    20.0000    10.0000    20.0000    26.0000    10.0000    16.0000    20.0000    -0.0005     0.0005   159.4164   -41.1662     3.9974    29.7018    14.7000     2.0000     1.0000   299.9740     0.000
      2     2.5000     0.5500    -0.0001    14.7495     27.091     29.000 194311.000     30.000    47.1929   -20.0773   -28.7640   120.0962    -0.1480    -3.0001   -49.6254     0.0000   240.0000     0.0000     1.0000   300.0000   300.0000   -25.7082    74.6155    -1.9790    -1.4485    20.0000    20.0000    10.0000    20.0000    26.0000    10.0000    16.0000    20.0000    -0.0005     0.0005   159.4164   -41.1662     3.9973    29.4495    14.7000     2.0000     1.0000   300.0270     0.000
      3     2.5000     0.5500    -0.0001    14.4998     26.890     32.000 194311.000     30.000    47.3944   -20.0773   -28.8894   120.0962    -0.1480    -3.0001   -49.3982     0.0000   240.0000     0.0000     1.0000   300.0000   300.0000   -25.7749    74.9048    -1.9790    -1.4485    20.0000    20.0000    10.0000    20.0000    26.0000    10.0000    16.0000    20.0000    -0.0005     0.0005   159.4164   -41.1662     3.9973    29.1998    14.7000     2.0000     1.0000   299.9470     0.000
      4     2.5001     0.5500    -0.0001    14.2506     26.468     43.000 194311.000     30.000    47.5986   -20.0773   -29.0161   120.0962    -0.1480    -3.0001   -49.1702     0.0000   240.0000     0.0000     1.0000   300.0000   300.0000   -25.8407    75.1997    -1.9790    -1.4485    20.0000    20.0000    10.0000    20.0000    26.0000    10.0000    16.0000    20.0000    -0.0005     0.0005   159.4164   -41.1662     3.9974    28.9507    14.7000     2.0000     1.0000   299.9940     0.000
      5     2.5000     0.5500    -0.0001    13.9994     26.058     29.000 194311.000     30.000    47.8055   -20.0773   -29.1456   120.0962    -0.1480    -3.0001   -48.9414     0.0000   240.0000     0.0000     1.0000   300.0000   300.0000   -25.9056    75.4920    -1.9790    -1.4485    20.0000    20.0000    10.0000    20.0000    26.0000    10.0000    16.0000    20.0000    -0.0005     0.0005   159.4164   -41.1662     3.9973    28.6995    14.7000     2.0000     1.0000   300.0240     0.000
      6     2.5000     0.5500    -0.0001    13.7503     25.755     43.000 194311.000     30.000    48.0151   -20.0773   -29.2758   120.0962    -0.1480    -3.0001   -48.7117     0.0000   240.0000     0.0000     1.0000   300.0000   300.0000   -25.9696    75.7901    -1.9790    -1.4485    20.0000    20.0000    10.0000    20.0000    26.0000    10.0000    16.0000    20.0000    -0.0005     0.0005   159.4164   -41.1662     3.9974    28.4503    14.7000     2.0000     1.0000   300.0070     0.000
      7     2.5000     0.5500    -0.0001    13.5003     25.631     26.000 194311.000     30.000    48.2274   -20.0773   -29.4082   120.0962    -0.1480    -3.0001   -48.4811     0.0000   240.0000     0.0000     1.0000   300.0000   300.0000   -26.0334    76.0865    -1.9790    -1.4485    20.0000    20.0000    10.0000    20.0000    26.0000    10.0000    16.0000    20.0000    -0.0005     0.0005   159.4164   -41.1662     3.9973    28.2003    14.7000     2.0000     1.0000   300.0030     0.000
      8     2.5000     0.5500    -0.0001    13.2496     25.739     44.000 194311.000     30.000    48.4427   -20.0773   -29.5428   120.0962    -0.1480    -3.0001   -48.2497     0.0000   240.0000     0.0000     1.0000   300.0000   300.0000   -26.0956    76.3887    -1.9790    -1.4485    20.0000    20.0000    10.0000    20.0000    26.0000    10.0000    16.0000    20.0000    -0.0005     0.0005   159.4164   -41.1662     3.9973    27.9496    14.7000     2.0000     1.0000   300.0120     0.000
      9     2.5000     0.5500    -0.0001    13.0000     25.898     32.000 194311.000     30.000    48.6608   -20.0773   -29.6786   120.0962    -0.1480    -3.0001   -48.0174     0.0000   240.0000     0.0000     1.0000   300.0000   300.0000   -26.1571    76.6901    -1.9790    -1.4485    20.0000    20.0000    10.0000    20.0000    26.0000    10.0000    16.0000    20.0000    -0.0005     0.0005   159.4164   -41.1662     3.9973    27.7000    14.7000     2.0000     1.0000   300.0100     0.000
     10     2.5001     0.5500    -0.0001    12.7499     26.049     35.000 194311.000     30.000    48.8819   -20.0773   -29.8167   120.0962    -0.1480    -3.0001   -47.7842     0.0000   240.0000     0.0000     1.0000   300.0000   300.0000   -26.2177    76.9975    -1.9790    -1.4485    20.0000    20.0000    10.0000    20.0000    26.0000    10.0000    16.0000    20.0000    -0.0005     0.0005   159.4164   -41.1662     3.9974    27.4499    14.7000     2.0000     1.0000   300.0020     0.000
     11     2.5000     0.5500    -0.0001    12.4999     26.570     35.000 194311.000     30.000    49.1060   -20.0773   -29.9566   120.0962    -0.1480    -3.0001   -47.5501     0.0000   240.0000     0.0000     1.0000   300.0000   300.0000   -26.2776    77.3017    -1.9790    -1.4485    20.0000    20.0000    10.0000    20.0000    26.0000    10.0000    16.0000    20.0000    -0.0005     0.0005   159.4164   -41.1662     3.9973    27.1999    14.7000     2.0000     1.0000   300.0030     0.000
     12     2.5001     0.5500    -0.0001    12.2504     26.908     34.000 194311.000     30.000    49.3332   -20.0773   -30.0982   120.0962    -0.1480    -3.0001   -47.3151     0.0000   240.0000     0.0000     1.0000   300.0000   300.0000   -26.3368    77.6127    -1.9790    -1.4485    20.0000    20.0000    10.0000    20.0000    26.0000    10.0000    16.0000    20.0000    -0.0005     0.0005   159.4164   -41.1662     3.9974    26.9504    14.7000     2.0000     1.0000   299.8890     0.000
     13     2.5000     0.5500    -0.0001    11.9996     27.069     30.000 194311.000     30.000    49.5636   -20.0773   -30.2426   120.0962    -0.1480    -3.0001   -47.0791     0.0000   240.0000     0.0000     1.0000   300.0000   300.0000   -26.3946    77.9224    -1.9790    -1.4485    20.0000    20.0000    10.0000    20.0000    26.0000    10.0000    16.0000    20.0000    -0.0005     0.0005   159.4164   -41.1662     3.9973    26.6996    14.7000     2.0000     1.0000   300.0120     0.000
     14     2.5000     0.5500    -0.0001    11.7500     27.097     45.000 194311.000     30.000    49.7973   -20.0773   -30.3884   120.0962    -0.1480    -3.0001   -46.8422     0.0000   240.0000     0.0000     1.0000   300.0000   300.0000   -26.4513    78.2351    -1.9790    -1.4485    20.0000    20.0000    10.0000    20.0000    26.0000    10.0000    16.0000    20.0000    -0.0005     0.0005   159.4164   -41.1662     3.9973    26.4500    14.7000     2.0000     1.0000   300.0240     0.000
     15     2.5000     0.5500    -0.0001    11.5002     26.992     41.000 194311.000     30.000    50.0343   -20.0773   -30.5364   120.0962    -0.1480    -3.0001   -46.6044     0.0000   240.0000     0.0000     1.0000   300.0000   300.0000   -26.5071    78.5517    -1.9790    -1.4485    20.0000    20.0000    10.0000    20.0000    26.0000    10.0000    16.0000    20.0000    -0.0005     0.0005   159.4164   -41.1662     3.9973    26.2002    14.7000     2.0000     1.0000   300.0050     0.000
     16     2.5000     0.5500    -0.0001    11.2500     26.648     46.000 194311.000     30.000    50.2748   -20.0773   -30.6869   120.0962    -0.1480    -3.0001   -46.3655     0.0000   240.0000     0.0000     1.0000   300.0000   300.0000   -26.5621    78.8678    -1.9790    -1.4485    20.0000    20.0000    10.0000    20.0000    26.0000    10.0000    16.0000    20.0000    -0.0005     0.0005   159.4164   -41.1662     3.9972    25.9500    14.7000     2.0000     1.0000   300.0170     0.000
     17     2.5000     0.5500    -0.0001    10.9999     26.590     37.000 194311.000     30.000    50.5187   -20.0773   -30.8395   120.0962    -0.1480    -3.0001   -46.1257     0.0000   240.0000     0.0000     1.0000   300.0000   300.0000   -26.6160    79.1912    -1.9790    -1.4485    20.0000    20.0000    10.0000    20.0000    26.0000    10.0000    16.0000    20.0000    -0.0005     0.0005   159.4164   -41.1662     3.9973    25.6999    14.7000     2.0000     1.0000   300.0020     0.000
     18     2.5000     0.5500    -0.0001    10.7502     26.414     47.000 194311.000     30.000    50.7662   -20.0773   -30.9942   120.0962    -0.1480    -3.0001   -45.8849     0.0000   240.0000     0.0000     1.0000   300.0000   300.0000   -26.6685    79.5129    -1.9790    -1.4485    20.0000    20.0000    10.0000    20.0000    26.0000    10.0000    16.0000    20.0000    -0.0005     0.0005   159.4164   -41.1662     3.9973    25.4502    14.7000     2.0000     1.0000   300.0270     0.000
     19     2.5000     0.5500    -0.0001    10.5001     26.364     63.000 194311.000     30.000    51.0174   -20.0773   -31.1515   120.0962    -0.1480    -3.0001   -45.6430     0.0000   240.0000     0.0000     1.0000   300.0000   300.0000   -26.7199    79.8395    -1.9790    -1.4485    20.0000    20.0000    10.0000    20.0000    26.0000    10.0000    16.0000    20.0000    -0.0005     0.0005   159.4164   -41.1662     3.9973    25.2001    14.7000     2.0000     1.0000   299.9930     0.000
     20     2.5000     0.5500    -0.0001    10.2504     26.406     55.000 194311.000     30.000    51.2724   -20.0773   -31.3110   120.0962    -0.1480    -3.0001   -45.4002     0.0000   240.0000     0.0000     1.0000   300.0000   300.0000   -26.7705    80.1682    -1.9790    -1.4485    20.0000    20.0000    10.0000    20.0000    26.0000    10.0000    16.0000    20.0000    -0.0005     0.0005   159.4164   -41.1662     3.9973    24.9504    14.7000     2.0000     1.0000   300.0110     0.000
     21     2.5000     0.5500    -0.0001     9.9999     26.718     57.000 194311.000     30.000    51.5312   -20.0773   -31.4735   120.0962    -0.1480    -3.0001   -45.1562     0.0000   240.0000     0.0000     1.0000   300.0000   300.0000   -26.8196    80.4983    -1.9790    -1.4485    20.0000    20.0000    10.0000    20.0000    26.0000    10.0000    16.0000    20.0000    -0.0005     0.0005   159.4164   -41.1662     3.9973    24.6999    14.7000     2.0000     1.0000   299.9120     0.000
     22     2.5000     0.5500    -0.0001     9.7499     27.125     61.000 194311.000     30.000    51.7940   -20.0773   -31.6382   120.0962    -0.1480    -3.0001   -44.9112     0.0000   240.0000     0.0000     1.0000   300.0000   300.0000   -26.8671    80.8316    -1.9790    -1.4485    20.0000    20.0000    10.0000    20.0000    26.0000    10.0000    16.0000    20.0000    -0.0005     0.0005   159.4164   -41.1662     3.9972    24.4499    14.7000     2.0000     1.0000   299.9990     0.000
     23     2.5000     0.5500    -0.0001     9.4999     27.428     63.000 194311.000     30.000    52.0609   -20.0773   -31.8055   120.0962    -0.1480    -3.0001   -44.6652     0.0000   240.0000     0.0000     1.0000   300.0000   300.0000   -26.9144    81.1706    -1.9790    -1.4485    20.0000    20.0000    10.0000    20.0000    26.0000    10.0000    16.0000    20.0000    -0.0005     0.0005   159.4164   -41.1662     3.9973    24.1999    14.7000     2.0000     1.0000   300.0130     0.000
     24     2.5000     0.5500    -0.0001     9.2502     27.595     67.000 194311.000     30.000    52.3319   -20.0773   -31.9753   120.0962    -0.1480    -3.0001   -44.4180     0.0000   240.0000     0.0000     1.0000   300.0000   300.0000   -26.9593    81.5094    -1.9790    -1.4485    20.0000    20.0000    10.0000    20.0000    26.0000    10.0000    16.0000    20.0000    -0.0005     0.0005   159.4164   -41.1662     3.9973    23.9502    14.7000     2.0000     1.0000   300.0250     0.000
     25     2.4999     0.5500    -0.0001     8.9999     27.493     78.000 194311.000     30.000    52.6071   -20.0773   -32.1482   120.0962    -0.1480    -3.0001   -44.1697     0.0000   240.0000     0.0000     1.0000   300.0000   300.0000   -27.0033    81.8497    -1.9790    -1.4485    20.0000    20.0000    10.0000    20.0000    26.0000    10.0000    16.0000    20.0000    -0.0005     0.0005   159.4164   -41.1662     3.9972    23.6999    14.7000     2.0000     1.0000   300.0180     0.000
     26     2.5001     0.5500    -0.0001     8.7501     26.854     78.000 194311.000     30.000    52.8868   -20.0773   -32.3236   120.0962    -0.1480    -3.0001   -43.9203     0.0000   240.0000     0.0000     1.0000   300.0000   300.0000   -27.0458    82.2011    -1.9790    -1.4485    20.0000    20.0000    10.0000    20.0000    26.0000    10.0000    16.0000    20.0000    -0.0005     0.0005   159.4164   -41.1662     3.9974    23.4501    14.7000     2.0000     1.0000   300.0050     0.000
     27     2.5000     0.5500    -0.0001     8.5001     26.220     54.000 194311.000     30.000    53.1710   -20.0773   -32.5021   120.0962    -0.1480    -3.0001   -43.6697     0.0000   240.0000     0.0000     1.0000   300.0000   300.0000   -27.0870    82.5472    -1.9790    -1.4485    20.0000    20.0000    10.0000    20.0000    26.0000    10.0000    16.0000    20.0000    -0.0005     0.0005   159.4164   -41.1662     3.9973    23.2001    14.7000     2.0000     1.0000   300.0210     0.000
     28     2.5000     0.5500    -0.0001     8.2498     25.193     66.000 194311.000     30.000    53.4598   -20.0773   -32.6838   120.0962    -0.1480    -3.0001   -43.4180     0.0000   240.0000     0.0000     1.0000   300.0000   300.0000   -27.1268    82.8993    -1.9790    -1.4485    20.0000    20.0000    10.0000    20.0000    26.0000    10.0000    16.0000    20.0000    -0.0005     0.0005   159.4164   -41.1662     3.9973    22.9498    14.7000     2.0000     1.0000   299.9000     0.000
     29     2.5000     0.5500    -0.0001     8.0000     24.614     69.000 194311.000     30.000    53.7534   -20.0773   -32.8682   120.0962    -0.1480    -3.0001   -43.1651     0.0000   240.0000     0.0000     1.0000   300.0000   300.0000   -27.1648    83.2537    -1.9790    -1.4485    20.0000    20.0000    10.0000    20.0000    26.0000    10.0000    16.0000    20.0000    -0.0005     0.0005   159.4164   -41.1662     3.9972    22.7000    14.7000     2.0000     1.0000   300.0140     0.000
     30     2.5000     0.5500    -0.0001     7.7501     24.400     68.000 194311.000     30.000    54.0519   -20.0773   -33.0559   120.0962    -0.1480    -3.0001   -42.9109     0.0000   240.0000     0.0000     1.0000   300.0000   300.0000   -27.2013    83.6143    -1.9790    -1.4485    20.0000    20.0000    10.0000    20.0000    26.0000    10.0000    16.0000    20.0000    -0.0005     0.0005   159.4164   -41.1662     3.9973    22.4501    14.7000     2.0000     1.0000   299.9290     0.000
     31     2.5000     0.5500    -0.0001     7.4998     24.076     66.000 194311.000     30.000    54.3554   -20.0773   -33.2471   120.0962    -0.1480    -3.0001   -42.6556     0.0000   240.0000     0.0000     1.0000   300.0000   300.0000   -27.2361    83.9785    -1.9790    -1.4485    20.0000    20.0000    10.0000    20.0000    26.0000    10.0000    16.0000    20.0000    -0.0005     0.0005   159.4164   -41.1662     3.9973    22.1998    14.7000     2.0000     1.0000   300.0070     0.000
     32     2.5000     0.5500    -0.0001     7.2503     24.140     74.000 194311.000     30.000    54.6640   -20.0773   -33.4411   120.0962    -0.1480    -3.0001   -42.3989     0.0000   240.0000     0.0000     1.0000   300.0000   300.0000   -27.2694    84.3442    -1.9790    -1.4485    20.0000    20.0000    10.0000    20.0000    26.0000    10.0000    16.0000    20.0000    -0.0005     0.0005   159.4164   -41.1662     3.9973    21.9503    14.7000     2.0000     1.0000   299.9460     0.000
     33     2.5000     0.5500    -0.0001     6.9998     23.964     75.000 194311.000     30.000    54.9780   -20.0773   -33.6392   120.0962    -0.1480    -3.0001   -42.1410     0.0000   240.0000     0.0000     1.0000   300.0000   300.0000   -27.3006    84.7145    -1.9790    -1.4485    20.0000    20.0000    10.0000    20.0000    26.0000    10.0000    16.0000    20.0000    -0.0005     0.0005   159.4164   -41.1662     3.9973    21.6998    14.7000     2.0000     1.0000   300.0210     0.000
     34     2.5000     0.5500    -0.0001     6.7502     24.129     69.000 194311.000     30.000    55.2975   -20.0773   -33.8402   120.0962    -0.1480    -3.0001   -41.8818     0.0000   240.0000     0.0000     1.0000   300.0000   300.0000   -27.3304    85.0865    -1.9790    -1.4485    20.0000    20.0000    10.0000    20.0000    26.0000    10.0000    16.0000    20.0000    -0.0005     0.0005   159.4164   -41.1662     3.9972    21.4502    14.7000     2.0000     1.0000   299.9500     0.000
     35     2.5000     0.5500    -0.0001     6.4999     24.438     71.000 194311.000     30.000    55.6225   -20.0773   -34.0455   120.0962    -0.1480    -3.0001   -41.6214     0.0000   240.0000     0.0000     1.0000   300.0000   300.0000   -27.3583    85.4647    -1.9790    -1.4485    20.0000    20.0000    10.0000    20.0000    26.0000    10.0000    16.0000    20.0000    -0.0005     0.0005   159.4164   -41.1662     3.9972    21.1999    14.7000     2.0000     1.0000   300.0120     0.000
     36     2.5000     0.5500    -0.0001     6.2501     24.550     83.000 194311.000     30.000    55.9535   -20.0773   -34.2541   120.0962    -0.1480    -3.0001   -41.3595     0.0000   240.0000     0.0000     1.0000   300.0000   300.0000   -27.3840    85.8466    -1.9790    -1.4485    20.0000    20.0000    10.0000    20.0000    26.0000    10.0000    16.0000    20.0000    -0.0005     0.0005   159.4164   -41.1662     3.9972    20.9501    14.7000     2.0000     1.0000   299.9890     0.000
     37     2.5000     0.5500    -0.0001     6.0000     24.954     77.000 194311.000     30.000    56.2903   -20.0773   -34.4667   120.0962    -0.1480    -3.0001   -41.0963     0.0000   240.0000     0.0000     1.0000   300.0000   300.0000   -27.4075    86.2338    -1.9790    -1.4485    20.0000    20.0000    10.0000    20.0000    26.0000    10.0000    16.0000    20.0000    -0.0005     0.0005   159.4164   -41.1662     3.9973    20.7001    14.7000     2.0000     1.0000   299.9970     0.000
     38     2.5000     0.5500    -0.0001     5.7501     25.299     84.000 194311.000     30.000    56.6333   -20.0773   -34.6834   120.0962    -0.1480    -3.0001   -40.8317     0.0000   240.0000     0.0000     1.0000   300.0000   300.0000   -27.4295    86.6249    -1.9790    -1.4485    20.0000    20.0000    10.0000    20.0000    26.0000    10.0000    16.0000    20.0000    -0.0005     0.0005   159.4164   -41.1662     3.9973    20.4501    14.7000     2.0000     1.0000   300.0080     0.000
     39     2.4998     0.5508    -0.0001     5.4998     25.738     73.000 194311.000     30.000    56.9827   -20.0773   -34.9044   120.0962    -0.1480    -3.0001   -40.5656     0.0000   240.0000     0.0000     1.0000   300.0000   300.0000   -27.4295    87.0224    -1.9790    -1.4485    20.0000    20.0000    10.0000    20.0000    26.0000    10.0000    16.0000    20.0000    -0.0005     0.0005   159.4164   -41.1662     3.9973    20.1998    14.7000     2.0000     1.0000   300.0270     0.000
     40     2.5000     0.5500    -0.0001     5.2501     26.092     76.000 194311.000     30.000    57.3387   -20.0773   -35.1292   120.0962    -0.1480    -3.0001   -40.2982     0.0000   240.0000     0.0000     1.0000   300.0000   300.0000   -27.4661    87.4224    -1.9790    -1.4485    20.0000    20.0000    10.0000    20.0000    26.0000    10.0000    16.0000    20.0000    -0.0005     0.0005   159.4164   -41.1662     3.9973    19.9501    14.7000     2.0000     1.0000   300.0170     0.000
     41     2.4998     0.5507    -0.0001     5.0000     26.461     84.000 194311.000     30.000    57.7013   -20.0773   -35.3589   120.0962    -0.1480    -3.0001   -40.0292     0.0000   240.0000     0.0000     1.0000   300.0000   300.0000   -27.4661    87.8255    -1.9790    -1.4485    20.0000    20.0000    10.0000    20.0000    26.0000    10.0000    16.0000    20.0000    -0.0005     0.0005   159.4164   -41.1662     3.9973    19.7000    14.7000     2.0000     1.0000   300.0110     0.000
     42     2.5000     0.5500    -0.0001     4.7501     26.414     84.000 194311.000     30.000    58.0709   -20.0773   -35.5928   120.0962    -0.1480    -3.0001   -39.7588     0.0000   240.0000     0.0000     1.0000   300.0000   300.0000   -27.4944    88.2353    -1.9790    -1.4485    20.0000    20.0000    10.0000    20.0000    26.0000    10.0000    16.0000    20.0000    -0.0005     0.0005   159.4164   -41.1662     3.9973    19.4501    14.7000     2.0000     1.0000   300.0030     0.000
     43     2.4999     0.5504    -0.0001     4.5000     26.766     61.000 194311.000     30.000    58.4478   -20.0773   -35.8318   120.0962    -0.1480    -3.0001   -39.4868     0.0000   240.0000     0.0000     1.0000   300.0000   300.0000   -27.4944    88.6495    -1.9790    -1.4485    20.0000    20.0000    10.0000    20.0000    26.0000    10.0000    16.0000    20.0000    -0.0005     0.0005   159.4164   -41.1662     3.9972    19.2000    14.7000     2.0000     1.0000   300.0220     0.000
     44     2.4998     0.5508    -0.0001     4.2500     26.944     59.000 194311.000     30.000    58.8321   -20.0773   -36.0754   120.0962    -0.1480    -3.0001   -39.2133     0.0000   240.0000     0.0000     1.0000   300.0000   300.0000   -27.4944    89.0700    -1.9790    -1.4485    20.0000    20.0000    10.0000    20.0000    26.0000    10.0000    16.0000    20.0000    -0.0005     0.0005   159.4164   -41.1662     3.9972    18.9500    14.7000     2.0000     1.0000   300.0090     0.000
     45     2.5000     0.5500    -0.0001     3.9999     27.320     56.000 194311.000     30.000    59.2240   -20.0773   -36.3241   120.0962    -0.1480    -3.0001   -38.9382     0.0000   240.0000     0.0000     1.0000   300.0000   300.0000   -27.5158    89.4970    -1.9790    -1.4485    20.0000    20.0000    10.0000    20.0000    26.0000    10.0000    16.0000    20.0000    -0.0005     0.0005   159.4164   -41.1662     3.9973    18.6999    14.7000     2.0000     1.0000   299.8950     0.000
     46     2.5000     0.5501    -0.0001     3.7501     27.621     58.000 194311.000     30.000    59.6240   -20.0773   -36.5779   120.0962    -0.1480    -3.0001   -38.6614     0.0000   240.0000     0.0000     1.0000   300.0000   300.0000   -27.5158    89.9294    -1.9790    -1.4485    20.0000    20.0000    10.0000    20.0000    26.0000    10.0000    16.0000    20.0000    -0.0005     0.0005   159.4164   -41.1662     3.9973    18.4501    14.7000     2.0000     1.0000   300.0010     0.000
     47     2.5000     0.5500    -0.0001     3.5000     28.290     61.000 194311.000     30.000    60.0321   -20.0773   -36.8373   120.0962    -0.1480    -3.0001   -38.3830     0.0000   240.0000     0.0000     1.0000   300.0000   300.0000   -27.5158    90.3672    -1.9790    -1.4485    20.0000    20.0000    10.0000    20.0000    26.0000    10.0000    16.0000    20.0000    -0.0005     0.0005   159.4164   -41.1662     3.9973    18.2000    14.7000     2.0000     1.0000   300.0300     0.000
     48     2.5000     0.5500    -0.0001     3.2499     29.247     43.000 194311.000     30.000    60.4487   -20.0773   -37.1024   120.0962    -0.1480    -3.0001   -38.1029     0.0000   240.0000     0.0000     1.0000   300.0000   300.0000   -27.5130    90.8105    -1.9790    -1.4485    20.0000    20.0000    10.0000    20.0000    26.0000    10.0000    16.0000    20.0000    -0.0005     0.0005   159.4164   -41.1662     3.9973    17.9499    14.7000     2.0000     1.0000   300.0220     0.000
     49     2.5000     0.5500    -0.0001     3.0003     30.151     34.000 194311.000     30.000    60.8740   -20.0773   -37.3727   120.0962    -0.1480    -3.0001   -37.8211     0.0000   240.0000     0.0000     1.0000   300.0000   300.0000   -27.5055    91.2582    -1.9790    -1.4485    20.0000    20.0000    10.0000    20.0000    26.0000    10.0000    16.0000    20.0000    -0.0005     0.0005   159.4164   -41.1662     3.9973    17.7003    14.7000     2.0000     1.0000   300.0000     0.000
     50     2.5000     0.5500    -0.0001     2.7499     30.133     36.000 194311.000     30.000    61.3086   -20.0773   -37.6499   120.0962    -0.1480    -3.0001   -37.5375     0.0000   240.0000     0.0000     1.0000   300.0000   300.0000   -27.4947    91.7164    -1.9790    -1.4485    20.0000    20.0000    10.0000    20.0000    26.0000    10.0000    16.0000    20.0000    -0.0005     0.0005   159.4164   -41.1662     3.9973    17.4499    14.7000     2.0000     1.0000   299.9980     0.000
     51     2.5001     0.5500    -0.0001     2.5000     29.582     40.000 194311.000     30.000    61.7525   -20.0773   -37.9327   120.0962    -0.1480    -3.0001   -37.2522     0.0000   240.0000     0.0000     1.0000   300.0000   300.0000   -27.4808    92.1812    -1.9790    -1.4485    20.0000    20.0000    10.0000    20.0000    26.0000    10.0000    16.0000    20.0000    -0.0005     0.0005   159.4164   -41.1662     3.9974    17.2000    14.7000     2.0000     1.0000   300.0090     0.000
     52     2.5000     0.5500    -0.0001     2.2499     29.841     36.000 194311.000     30.000    62.2063   -20.0773   -38.2224   120.0962    -0.1480    -3.0001   -36.9649     0.0000   240.0000     0.0000     1.0000   300.0000   300.0000   -27.4636    92.6474    -1.9790    -1.4485    20.0000    20.0000    10.0000    20.0000    26.0000    10.0000    16.0000    20.0000    -0.0005     0.0005   159.4164   -41.1662     3.9972    16.9499    14.7000     2.0000     1.0000   300.0350     0.000
     53     2.5000     0.5500    -0.0001     2.0000     30.176     35.000 194311.000     30.000    62.6702   -20.0773   -38.5184   120.0962    -0.1480    -3.0001   -36.6758     0.0000   240.0000     0.0000     1.0000   300.0000   300.0000   -27.4415    93.1271    -1.9790    -1.4485    20.0000    20.0000    10.0000    20.0000    26.0000    10.0000    16.0000    20.0000    -0.0005     0.0005   159.4164   -41.1662     3.9973    16.7000    14.7000     2.0000     1.0000   300.0020     0.000
     54     2.5000     0.5500    -0.0001     1.7500     30.330     47.000 194311.000     30.000    63.1445   -20.0773   -38.8217   120.0962    -0.1480    -3.0001   -36.3848     0.0000   240.0000     0.0000     1.0000   300.0000   300.0000   -27.4161    93.6121    -1.9790    -1.4485    20.0000    20.0000    10.0000    20.0000    26.0000    10.0000    16.0000    20.0000    -0.0005     0.0005   159.4164   -41.1662     3.9973    16.4500    14.7000     2.0000     1.0000   300.0070     0.000
     55     2.5000     0.5500    -0.0001     1.5000     30.759     34.000 194311.000     30.000    63.6299   -20.0773   -39.1322   120.0962    -0.1480    -3.0001   -36.0918     0.0000   240.0000     0.0000     1.0000   300.0000   300.0000   -27.3866    94.1044    -1.9790    -1.4485    20.0000    20.0000    10.0000    20.0000    26.0000    10.0000    16.0000    20.0000    -0.0005     0.0005   159.4164   -41.1662     3.9973    16.2000    14.7000     2.0000     1.0000   299.9210     0.000
     56     2.5000     0.5500    -0.0001     1.2500     32.104     53.000 194311.000     30.000    64.1267   -20.0773   -39.4503   120.0962    -0.1480    -3.0001   -35.7968     0.0000   240.0000     0.0000     1.0000   300.0000   300.0000   -27.3528    94.6060    -1.9790    -1.4485    20.0000    20.0000    10.0000    20.0000    26.0000    10.0000    16.0000    20.0000    -0.0005     0.0005   159.4164   -41.1662     3.9973    15.9500    14.7000     2.0000     1.0000   300.0180     0.000
     57     2.5000     0.5500    -0.0001     1.0000     33.438     94.000 194311.000     30.000    64.6352   -20.0773   -39.7763   120.0962    -0.1480    -3.0001   -35.4997     0.0000   240.0000     0.0000     1.0000   300.0000   300.0000   -27.3146    95.1162    -1.9790    -1.4485    20.0000    20.0000    10.0000    20.0000    26.0000    10.0000    16.0000    20.0000    -0.0005     0.0005   159.4164   -41.1662     3.9973    15.7000    14.7000     2.0000     1.0000   300.0210     0.000
     58     2.5000     0.5500    -0.0001     0.7500     34.082    192.000 194311.000     30.000    65.1560   -20.0773   -40.1106   120.0962    -0.1480    -3.0001   -35.2005     0.0000   240.0000     0.0000     1.0000   300.0000   300.0000   -27.2707    95.6326    -1.9790    -1.4485    20.0000    20.0000    10.0000    20.0000    26.0000    10.0000    16.0000    20.0000    -0.0005     0.0005   159.4164   -41.1662     3.9972    15.4500    14.7000     2.0000     1.0000   299.9030     0.000
     59     2.5000     0.5500    -0.0001     0.5001     33.370    353.000 194311.000     30.000    65.6897   -20.0773   -40.4533   120.0962    -0.1480    -3.0001   -34.8991     0.0000   240.0000     0.0000     1.0000   300.0000   300.0000   -27.2231    96.1635    -1.9790    -1.4485    20.0000    20.0000    10.0000    20.0000    26.0000    10.0000    16.0000    20.0000    -0.0005     0.0005   159.4164   -41.1662     3.9973    15.2001    14.7000     2.0000     1.0000   300.0100     0.000
     60     2.5000     0.5500    -0.0001     0.2499     31.612    548.000 194311.000     30.000    66.2366   -20.0773   -40.8052   120.0962    -0.1480    -3.0001   -34.5956     0.0000   240.0000     0.0000     1.0000   300.0000   300.0000   -27.1690    96.6995    -1.9790    -1.4485    20.0000    20.0000    10.0000    20.0000    26.0000    10.0000    16.0000    20.0000    -0.0005     0.0005   159.4164   -41.1662     3.9973    14.9499    14.7000     2.0000     1.0000   300.0160     0.000
     61     2.5000     0.5500    -0.0001     0.0001     30.161    703.000 194311.000     30.000    66.7975   -20.0773   -41.1661   120.0962    -0.1480    -3.0001   -34.2897     0.0000   240.0000     0.0000     1.0000   300.0000   300.0000   -27.1100    97.2466    -1.9790    -1.4485    20.0000    20.0000    10.0000    20.0000    26.0000    10.0000    16.0000    20.0000    -0.0005     0.0005   159.4164   -41.1662     3.9973    14.7001    14.7000     2.0000     1.0000   299.8910     0.000
# Sum of Counts = 4901
# Center of Mass = 4.821955+/-0.117134
# Full Width Half-Maximum = 9.108418+/-0.124025
# 9:08:13 AM  9/6/2024   scan completed.
