# scan = 1941
# date = 2/27/2025
# time = 9:49:05 AM
# proposal = 33477
# experiment = Commissioning and enabling the 4-circle capability at VERITAS
# experiment_number = 1046
# command = scanrel omega 1.2 -1.2 .12
# builtin_command = scan omega @(omega)+1.2 @(omega)+-1.2 0.120000
# users = Feng Ye, Mike McDowell, Jiasen Guo, Adam Aczel, Kaleb Burrage, Wei Tian, Bing Li, Zachary Morgan
# local_contact = Wei Tian
# scan_title = rocking (1,5,0) at T = 4K
# monochromator = PG002
# analyzer = Pg002
# sense = +-+
# collimation = 40-40-40-80
# samplename = La2Ni7, MnWO4
# sampletype = crystal
# samplemosaic = 30.000000
# latticeconstants = 5.763481,13.237448,13.107500,90.061893,90.163172,89.991874
# ubmatrix = 0.038443,-0.073655,-0.001432,0.168955,0.016625,0.004606,-0.009003,-0.002310,0.076140
# mode = 0
# plane_normal = 0.000000,0.000000,0.000000
# ubconf = UBmatrix-MnWO4-UB022425.dat
# preset_type = normal 
# preset_channel = mcu
# preset_value = 30.000000
# def_x = omega
# def_y = detector
# col_headers = 
#   Pt.      omega       time   detector    monitor        mcu         m2        chi        phi     2theta   slitb_bt   slitb_lf   slitb_rt   slitb_tp   slita_bt   slita_lf   slita_rt   slita_tp         a1         a2          h          k          l          e         ei    coldtip     sample       temp
      1   -28.4430     27.576    163.000 579001.000     30.000    41.5367    -2.8338  -142.6100   -59.2923    25.0000     6.0000     5.0000    25.0000    23.0000     4.0000     4.0000    23.0000    20.7702    41.5162    -1.0455    -4.9510    -0.0040     0.0000    14.4503     4.3412    16.1765     4.000
      2   -28.5624     27.680    165.000 579001.000     30.000    41.5367    -2.8338  -142.6100   -59.2923    25.0000     6.0000     5.0000    25.0000    23.0000     4.0000     4.0000    23.0000    20.7702    41.5162    -1.0410    -4.9560    -0.0036     0.0000    14.4503     4.3459    16.1790     4.000
      3   -28.6823     27.617    180.000 579001.000     30.000    41.5367    -2.8338  -142.6100   -59.2923    25.0000     6.0000     5.0000    25.0000    23.0000     4.0000     4.0000    23.0000    20.7702    41.5162    -1.0365    -4.9610    -0.0032     0.0000    14.4503     4.3457    16.1822     4.000
      4   -28.8028     27.610    169.000 579001.000     30.000    41.5367    -2.8338  -142.6100   -59.2923    25.0000     6.0000     5.0000    25.0000    23.0000     4.0000     4.0000    23.0000    20.7702    41.5162    -1.0320    -4.9660    -0.0028     0.0000    14.4503     4.3431    16.1840     4.000
      5   -28.9232     27.562    157.000 579001.000     30.000    41.5367    -2.8338  -142.6100   -59.2923    25.0000     6.0000     5.0000    25.0000    23.0000     4.0000     4.0000    23.0000    20.7702    41.5162    -1.0274    -4.9709    -0.0024     0.0000    14.4503     4.3443    16.1869     4.000
      6   -29.0432     27.573    168.000 579001.000     30.000    41.5367    -2.8338  -142.6100   -59.2923    25.0000     6.0000     5.0000    25.0000    23.0000     4.0000     4.0000    23.0000    20.7702    41.5162    -1.0229    -4.9759    -0.0020     0.0000    14.4503     4.3506    16.1887     4.000
      7   -29.1630     27.601    200.000 579001.000     30.000    41.5367    -2.8338  -142.6100   -59.2923    25.0000     6.0000     5.0000    25.0000    23.0000     4.0000     4.0000    23.0000    20.7702    41.5162    -1.0184    -4.9808    -0.0016     0.0000    14.4503     4.3464    16.1899     4.000
      8   -29.2825     27.499    198.000 579001.000     30.000    41.5367    -2.8338  -142.6100   -59.2923    25.0000     6.0000     5.0000    25.0000    23.0000     4.0000     4.0000    23.0000    20.7702    41.5162    -1.0139    -4.9856    -0.0012     0.0000    14.4503     4.3489    16.1894     4.000
      9   -29.4030     27.611    222.000 579001.000     30.000    41.5367    -2.8338  -142.6100   -59.2924    25.0000     6.0000     5.0000    25.0000    23.0000     4.0000     4.0000    23.0000    20.7702    41.5162    -1.0093    -4.9905    -0.0008     0.0000    14.4503     4.3443    16.1901     4.000
     10   -29.5226     27.618    221.000 579001.000     30.000    41.5367    -2.8338  -142.6100   -59.2924    25.0000     6.0000     5.0000    25.0000    23.0000     4.0000     4.0000    23.0000    20.7702    41.5162    -1.0048    -4.9953    -0.0004     0.0000    14.4503     4.3475    16.1938     4.000
     11   -29.6425     27.576    228.000 579001.000     30.000    41.5367    -2.8338  -142.6100   -59.2924    25.0000     6.0000     5.0000    25.0000    23.0000     4.0000     4.0000    23.0000    20.7702    41.5162    -1.0002    -5.0002    -0.0000     0.0000    14.4503     4.3478    16.1953     4.000
     12   -29.7624     27.606    246.000 579001.000     30.000    41.5367    -2.8338  -142.6100   -59.2924    25.0000     6.0000     5.0000    25.0000    23.0000     4.0000     4.0000    23.0000    20.7702    41.5162    -0.9957    -5.0050     0.0003     0.0000    14.4503     4.3431    16.1959     4.000
     13   -29.8833     27.577    229.000 579001.000     30.000    41.5367    -2.8338  -142.6100   -59.2924    25.0000     6.0000     5.0000    25.0000    23.0000     4.0000     4.0000    23.0000    20.7702    41.5162    -0.9911    -5.0098     0.0007     0.0000    14.4503     4.3469    16.1950     4.000
     14   -30.0030     27.669    174.000 579001.000     30.000    41.5367    -2.8338  -142.6100   -59.2924    25.0000     6.0000     5.0000    25.0000    23.0000     4.0000     4.0000    23.0000    20.7702    41.5162    -0.9865    -5.0145     0.0011     0.0000    14.4503     4.3471    16.1926     4.000
     15   -30.1231     27.626    175.000 579001.000     30.000    41.5367    -2.8338  -142.6100   -59.2924    25.0000     6.0000     5.0000    25.0000    23.0000     4.0000     4.0000    23.0000    20.7702    41.5163    -0.9819    -5.0192     0.0015     0.0000    14.4503     4.3482    16.1947     4.000
     16   -30.2428     27.524    155.000 579001.000     30.000    41.5367    -2.8338  -142.6100   -59.2924    25.0000     6.0000     5.0000    25.0000    23.0000     4.0000     4.0000    23.0000    20.7702    41.5162    -0.9774    -5.0239     0.0019     0.0000    14.4503     4.3511    16.1964     4.000
     17   -30.3627     27.677    165.000 579001.000     30.000    41.5367    -2.8338  -142.6100   -59.2924    25.0000     6.0000     5.0000    25.0000    23.0000     4.0000     4.0000    23.0000    20.7702    41.5162    -0.9728    -5.0286     0.0023     0.0000    14.4503     4.3499    16.1981     4.000
     18   -30.4829     27.650    161.000 579001.000     30.000    41.5367    -2.8338  -142.6100   -59.2924    25.0000     6.0000     5.0000    25.0000    23.0000     4.0000     4.0000    23.0000    20.7702    41.5162    -0.9682    -5.0333     0.0027     0.0000    14.4503     4.3555    16.1964     4.000
     19   -30.6022     27.538    159.000 579001.000     30.000    41.5367    -2.8338  -142.6100   -59.2924    25.0000     6.0000     5.0000    25.0000    23.0000     4.0000     4.0000    23.0000    20.7702    41.5162    -0.9636    -5.0379     0.0031     0.0000    14.4503     4.3495    16.1958     4.000
     20   -30.7225     27.621    155.000 579001.000     30.000    41.5367    -2.8338  -142.6100   -59.2924    25.0000     6.0000     5.0000    25.0000    23.0000     4.0000     4.0000    23.0000    20.7702    41.5162    -0.9590    -5.0425     0.0035     0.0000    14.4503     4.3538    16.1952     4.000
     21   -30.8428     27.503    173.000 579001.000     30.000    41.5367    -2.8338  -142.6100   -59.2924    25.0000     6.0000     5.0000    25.0000    23.0000     4.0000     4.0000    23.0000    20.7702    41.5162    -0.9544    -5.0472     0.0039     0.0000    14.4503     4.3492    16.1955     4.000
# Sum of Counts = 3863
# Center of Mass = -29.631462+/-0.674318
# Full Width Half-Maximum = 1.384903+/-0.281771
# 9:59:51 AM  2/27/2025   scan completed.
