# scan = 468
# date = 2/21/2025
# time = 2:07:25 PM
# proposal = 33477
# experiment = Commissioning and enabling the 4-circle capability at VERITAS
# experiment_number = 1046
# command = scanrel chi 4 -4 1
# builtin_command = scan chi @(chi)+4 @(chi)+-4 1.000000
# users = Feng Ye, Mike McDowell, Jiasen Guo, Adam Aczel, Kaleb Burrage, Wei Tian, Bing Li, Zachary Morgan
# local_contact = Wei Tian
# scan_title = MnWO4, look for [1 2 1] at T = @(colldtip.position) K
# monochromator = PG002
# analyzer = Pg002
# sense = +-+
# collimation = 40-40-40-80
# samplename = La2Ni7, MnWO4
# sampletype = crystal
# samplemosaic = 30.000000
# latticeconstants = 5.058000,5.058000,24.640000,90.000000,90.000000,120.000000
# ubmatrix = -0.014884,-0.002409,0.040485,-0.192745,-0.202001,-0.001686,0.121429,-0.106334,0.002286
# mode = 0
# plane_normal = 0.000000,0.000000,0.000000
# ubconf = UBmatrix-La2Ni7.dat
# preset_type = normal 
# preset_channel = mcu
# preset_value = 1.000000
# def_x = chi
# def_y = detector
# col_headers = 
#   Pt.        chi       time   detector    monitor        mcu         m2        phi      omega     2theta   slitb_bt   slitb_lf   slitb_rt   slitb_tp   slita_bt   slita_lf   slita_rt   slita_tp         a1         a2          h          k          l          e         ei    coldtip     sample       temp
      1    27.0015      0.976   2815.000  19301.000      1.000    41.5367   159.0384   -32.5998   -65.1995    24.0000    15.0000    15.0000    24.0000    25.0000    15.0000    15.0000    25.0000    20.7701    41.5151  -200.0000  -200.0000  -200.0000     0.0000    14.4503     4.2153    17.4290     4.000
      2    26.4803      0.000      0.000      0.000      0.000    41.5367   159.0384   -32.5998   -65.1995    24.0000    15.0000    15.0000    24.0000    25.0000    15.0000    15.0000    25.0000    20.7701    41.5151  -200.0000  -200.0000  -200.0000     0.0000    14.4503     4.2145    17.4309     4.000
# Sum of Counts = 2815
# Center of Mass = 27.001500+/-0.719720
# Full Width Half-Maximum = 0.000000+/-NaN
# 2:07:32 PM  2/21/2025   scan stopped!!
