# scan = 543
# date = 2/21/2025
# time = 6:13:56 PM
# proposal = 33477
# experiment = Commissioning and enabling the 4-circle capability at VERITAS
# experiment_number = 1046
# command = scanrel omega 1.5 -1.5 0.1
# builtin_command = scan omega @(omega)+1.5 @(omega)+-1.5 0.100000
# users = Feng Ye, Mike McDowell, Jiasen Guo, Adam Aczel, Kaleb Burrage, Wei Tian, Bing Li, Zachary Morgan
# local_contact = Wei Tian
# scan_title = MnWO4, (0.999982 2.000011 2.000041 rocking at T = 4.3101 K
# monochromator = PG002
# analyzer = Pg002
# sense = +-+
# collimation = 40-40-40-80
# samplename = La2Ni7, MnWO4
# sampletype = crystal
# samplemosaic = 30.000000
# latticeconstants = 4.824069,5.755582,4.999231,89.932854,88.939129,90.018476
# ubmatrix = 0.016958,0.172722,0.013747,0.204090,-0.011993,-0.036006,-0.032332,0.014503,-0.196318
# mode = 0
# plane_normal = 0.000000,0.000000,0.000000
# ubconf = UBmatrix-MnWO4-2nd.dat
# preset_type = normal 
# preset_channel = mcu
# preset_value = 5.000000
# def_x = omega
# def_y = detector
# col_headers = 
#   Pt.      omega       time   detector    monitor        mcu         m2        chi        phi     2theta   slitb_bt   slitb_lf   slitb_rt   slitb_tp   slita_bt   slita_lf   slita_rt   slita_tp         a1         a2          h          k          l          e         ei    coldtip     sample       temp
      1   -40.8521      4.841     33.000  96501.000      5.000    41.5367    44.3820   164.5051   -84.7039    24.0000    15.0000    15.0000    24.0000    25.0000    15.0000    15.0000    25.0000    20.7700    41.5151     0.9336     2.0277     2.0123     0.0000    14.4503     4.3088    15.0021     4.000
      2   -40.9518      0.000      0.000      0.000      5.000    41.5367    44.3820   164.5051   -84.7039    24.0000    15.0000    15.0000    24.0000    25.0000    15.0000    15.0000    25.0000    20.7700    41.5151     0.9381     2.0259     2.0115     0.0000    14.4503     4.3044    14.9982     4.000
# Sum of Counts = 33
# Center of Mass = -40.852100+/-10.057092
# Full Width Half-Maximum = 0.000000+/-NaN
# 6:14:06 PM  2/21/2025   scan stopped!!
