# scan = 722
# date = 2/22/2025
# time = 11:31:36 AM
# proposal = 33477
# experiment = Commissioning and enabling the 4-circle capability at VERITAS
# experiment_number = 1046
# command = scanrel omega 1.5 -1.5 0.1
# builtin_command = scan omega @(omega)+1.5 @(omega)+-1.5 0.100000
# users = Feng Ye, Mike McDowell, Jiasen Guo, Adam Aczel, Kaleb Burrage, Wei Tian, Bing Li, Zachary Morgan
# local_contact = Wei Tian
# scan_title = MnWO4, CM (0.25 0.5 -0.5) ( -1.63976 2.19974 -1.457939 ) rocking at T = 4.2595 K
# monochromator = PG002
# analyzer = Pg002
# sense = +-+
# collimation = 40-40-40-80
# samplename = La2Ni7, MnWO4
# sampletype = crystal
# samplemosaic = 30.000000
# latticeconstants = 4.824069,5.755582,4.999231,89.932854,88.939129,90.018476
# ubmatrix = 0.016958,0.172722,0.013747,0.204090,-0.011993,-0.036006,-0.032332,0.014503,-0.196318
# mode = 0
# plane_normal = 0.000000,0.000000,0.000000
# ubconf = UBmatrix-MnWO4-final.dat
# preset_type = normal 
# preset_channel = mcu
# preset_value = 10.000000
# def_x = omega
# def_y = detector
# col_headers = 
#   Pt.      omega       time   detector    monitor        mcu         m2        chi        phi     2theta   slitb_bt   slitb_lf   slitb_rt   slitb_tp   slita_bt   slita_lf   slita_rt   slita_tp         a1         a2          h          k          l          e         ei    coldtip     sample       temp
      1   -42.7015      9.586     10.000 193001.000     10.000    41.5367   -39.3085  -137.1050   -88.4015    20.0000     5.0000     4.0000    24.0000    22.0000     4.0000     4.0000    22.0000    20.7699    41.5152    -1.6965     2.1438    -1.4521     0.0000    14.4503     4.2594    15.1395     4.000
      2   -42.8003      9.532     18.000 193001.000     10.000    41.5367   -39.3085  -137.1050   -88.4016    20.0000     5.0000     4.0000    24.0000    22.0000     4.0000     4.0000    22.0000    20.7699    41.5152    -1.6928     2.1475    -1.4525     0.0000    14.4503     4.2544    15.1432     4.000
      3   -42.9007      9.587     12.000 193001.000     10.000    41.5367   -39.3085  -137.1050   -88.4017    20.0000     5.0000     4.0000    24.0000    22.0000     4.0000     4.0000    22.0000    20.7699    41.5152    -1.6891     2.1513    -1.4529     0.0000    14.4503     4.2518    15.1481     4.000
      4   -43.0007      0.000      0.000      0.000     10.000    41.5367   -39.3085  -137.1050   -88.4017    20.0000     5.0000     4.0000    24.0000    22.0000     4.0000     4.0000    22.0000    20.7700    41.5152    -1.6853     2.1551    -1.4533     0.0000    14.4503     4.2520    15.1511     4.000
# Sum of Counts = 40
# Center of Mass = -42.805720+/-9.571657
# Full Width Half-Maximum = 0.147445+/-10.045861
# 11:32:18 AM  2/22/2025   scan stopped!!
