# scan = 761
# date = 2/22/2025
# time = 5:36:13 PM
# proposal = 33477
# experiment = Commissioning and enabling the 4-circle capability at VERITAS
# experiment_number = 1046
# command = scan h 0.2 0.3 0.0025 k 0.4 0.6 0.005 l -0.4 -0.6 -0.005 preset mcu 3
# builtin_command = scan h 0.2 0.3 0.0025 k 0.4 0.6 0.005 l -0.4 -0.6 -0.005 preset mcu 3
# users = Feng Ye, Mike McDowell, Jiasen Guo, Adam Aczel, Kaleb Burrage, Wei Tian, Bing Li, Zachary Morgan
# local_contact = Wei Tian
# scan_title = MnWO4, CM (0.25 0.5 -0.5) ( -0.299975 -0.599917 0.599947 ) Longitudinal scan at T = 7.1805 K
# monochromator = PG002
# analyzer = Pg002
# sense = +-+
# collimation = 40-40-40-80
# samplename = La2Ni7, MnWO4
# sampletype = crystal
# samplemosaic = 30.000000
# latticeconstants = 4.824069,5.755582,4.999231,89.932854,88.939129,90.018476
# ubmatrix = 0.016958,0.172722,0.013747,0.204090,-0.011993,-0.036006,-0.032332,0.014503,-0.196318
# mode = 0
# plane_normal = 0.000000,0.000000,0.000000
# ubconf = UBmatrix-MnWO4-final.dat
# preset_type = normal 
# preset_channel = mcu
# preset_value = 3.000000
# def_x = h
# def_y = detector
# col_headers = 
#   Pt.          h          k          l       time   detector    monitor        mcu         m2        chi        phi      omega     2theta   slitb_bt   slitb_lf   slitb_rt   slitb_tp   slita_bt   slita_lf   slita_rt   slita_tp         a1         a2          e         ei    coldtip     sample       temp
      1    -0.1999    -0.3998     0.3998      2.872      5.000  57901.000      3.000    41.5367    42.8837   -36.9720    -7.8253   -15.6432    20.0000     5.0000     4.0000    24.0000    22.0000     4.0000     4.0000    22.0000    20.7707    41.5151     0.0000    14.4503     7.1827    15.6054     7.200
      2    -0.2024    -0.4048     0.4049      2.835      8.000  57901.000      3.000    41.5367    42.8837   -36.9720    -7.9239   -15.8428    20.0000     5.0000     4.0000    24.0000    22.0000     4.0000     4.0000    22.0000    20.7707    41.5152     0.0000    14.4503     7.1843    15.6089     7.200
      3    -0.2051    -0.4102     0.4102      2.842      8.000  57901.000      3.000    41.5367    42.8837   -36.9720    -8.0232   -16.0526    20.0000     5.0000     4.0000    24.0000    22.0000     4.0000     4.0000    22.0000    20.7707    41.5152     0.0000    14.4503     7.1874    15.6068     7.200
      4    -0.2075    -0.4150     0.4150      2.863      9.000  57901.000      3.000    41.5367    42.8837   -36.9720    -8.1212   -16.2429    20.0000     5.0000     4.0000    24.0000    22.0000     4.0000     4.0000    22.0000    20.7707    41.5152     0.0000    14.4503     7.1887    15.6083     7.200
      5    -0.2100    -0.4201     0.4201      2.862      4.000  57901.000      3.000    41.5367    42.8837   -36.9720    -8.2194   -16.4418    20.0000     5.0000     4.0000    24.0000    22.0000     4.0000     4.0000    22.0000    20.7706    41.5152     0.0000    14.4503     7.1944    15.6139     7.200
      6    -0.2125    -0.4250     0.4250      2.852      5.000  57901.000      3.000    41.5367    42.8837   -36.9720    -8.3180   -16.6372    20.0000     5.0000     4.0000    24.0000    22.0000     4.0000     4.0000    22.0000    20.7706    41.5152     0.0000    14.4503     7.1910    15.6120     7.200
      7    -0.2149    -0.4299     0.4299      2.863      8.000  57901.000      3.000    41.5367    42.8837   -36.9720    -8.4157   -16.8286    20.0000     5.0000     4.0000    24.0000    22.0000     4.0000     4.0000    22.0000    20.7706    41.5152     0.0000    14.4503     7.1949    15.6134     7.200
      8    -0.2175    -0.4350     0.4350      2.851      5.000  57901.000      3.000    41.5367    42.8837   -36.9720    -8.5149   -17.0305    20.0000     5.0000     4.0000    24.0000    22.0000     4.0000     4.0000    22.0000    20.7706    41.5152     0.0000    14.4503     7.1949    15.6143     7.200
      9    -0.2200    -0.4400     0.4400      2.845      8.000  57901.000      3.000    41.5367    42.8837   -36.9720    -8.6136   -17.2271    20.0000     5.0000     4.0000    24.0000    22.0000     4.0000     4.0000    22.0000    20.7705    41.5152     0.0000    14.4503     7.1895    15.6155     7.200
     10    -0.2225    -0.4450     0.4450      2.841      7.000  57901.000      3.000    41.5367    42.8837   -36.9720    -8.7120   -17.4239    20.0000     5.0000     4.0000    24.0000    22.0000     4.0000     4.0000    22.0000    20.7706    41.5152     0.0000    14.4503     7.1972    15.6179     7.200
     11    -0.2250    -0.4500     0.4500      2.856      7.000  57901.000      3.000    41.5367    42.8837   -36.9720    -8.8106   -17.6206    20.0000     5.0000     4.0000    24.0000    22.0000     4.0000     4.0000    22.0000    20.7705    41.5152     0.0000    14.4503     7.1951    15.6217     7.200
     12    -0.2275    -0.4550     0.4550      2.852      4.000  57901.000      3.000    41.5367    42.8837   -36.9720    -8.9100   -17.8213    20.0000     5.0000     4.0000    24.0000    22.0000     4.0000     4.0000    22.0000    20.7705    41.5152     0.0000    14.4503     7.1939    15.6216     7.200
     13    -0.2300    -0.4601     0.4601      2.843      7.000  57901.000      3.000    41.5367    42.8837   -36.9720    -9.0086   -18.0203    20.0000     5.0000     4.0000    24.0000    22.0000     4.0000     4.0000    22.0000    20.7705    41.5152     0.0000    14.4503     7.1914    15.6243     7.200
     14    -0.2325    -0.4650     0.4650      2.867     12.000  57901.000      3.000    41.5367    42.8837   -36.9720    -9.1078   -18.2163    20.0000     5.0000     4.0000    24.0000    22.0000     4.0000     4.0000    22.0000    20.7705    41.5152     0.0000    14.4503     7.1922    15.6269     7.200
     15    -0.2350    -0.4700     0.4700      2.866     12.000  57901.000      3.000    41.5367    42.8837   -36.9720    -9.2054   -18.4107    20.0000     5.0000     4.0000    24.0000    22.0000     4.0000     4.0000    22.0000    20.7704    41.5152     0.0000    14.4503     7.1927    15.6268     7.200
     16    -0.2375    -0.4750     0.4750      2.868      3.000  57901.000      3.000    41.5367    42.8837   -36.9720    -9.3046   -18.6088    20.0000     5.0000     4.0000    24.0000    22.0000     4.0000     4.0000    22.0000    20.7704    41.5152     0.0000    14.4503     7.1928    15.6273     7.200
     17    -0.2400    -0.4800     0.4800      2.877     13.000  57901.000      3.000    41.5367    42.8837   -36.9720    -9.4040   -18.8076    20.0000     5.0000     4.0000    24.0000    22.0000     4.0000     4.0000    22.0000    20.7705    41.5152     0.0000    14.4503     7.1934    15.6304     7.200
     18    -0.2425    -0.4850     0.4850      2.869    166.000  57901.000      3.000    41.5367    42.8837   -36.9720    -9.5022   -19.0046    20.0000     5.0000     4.0000    24.0000    22.0000     4.0000     4.0000    22.0000    20.7705    41.5152     0.0000    14.4503     7.1929    15.6276     7.200
     19    -0.2450    -0.4900     0.4900      2.865   1670.000  57901.000      3.000    41.5367    42.8837   -36.9720    -9.6008   -19.2017    20.0000     5.0000     4.0000    24.0000    22.0000     4.0000     4.0000    22.0000    20.7705    41.5152     0.0000    14.4503     7.1939    15.6297     7.200
     20    -0.2475    -0.4950     0.4950      2.850   5680.000  57901.000      3.000    41.5367    42.8837   -36.9720    -9.6995   -19.4010    20.0000     5.0000     4.0000    24.0000    22.0000     4.0000     4.0000    22.0000    20.7705    41.5152     0.0000    14.4503     7.1938    15.6301     7.200
     21    -0.2500    -0.5000     0.5000      2.854   8860.000  57901.000      3.000    41.5367    42.8837   -36.9720    -9.7989   -19.6000    20.0000     5.0000     4.0000    24.0000    22.0000     4.0000     4.0000    22.0000    20.7704    41.5152     0.0000    14.4503     7.1944    15.6312     7.200
     22    -0.2525    -0.5050     0.5050      2.851   7341.000  57901.000      3.000    41.5367    42.8837   -36.9720    -9.8984   -19.7971    20.0000     5.0000     4.0000    24.0000    22.0000     4.0000     4.0000    22.0000    20.7704    41.5152     0.0000    14.4503     7.1954    15.6315     7.200
     23    -0.2550    -0.5100     0.5100      2.870   3979.000  57901.000      3.000    41.5367    42.8837   -36.9720    -9.9977   -19.9934    20.0000     5.0000     4.0000    24.0000    22.0000     4.0000     4.0000    22.0000    20.7704    41.5152     0.0000    14.4503     7.1963    15.6333     7.200
     24    -0.2575    -0.5149     0.5149      2.867   1192.000  57901.000      3.000    41.5367    42.8837   -36.9720   -10.0966   -20.1888    20.0000     5.0000     4.0000    24.0000    22.0000     4.0000     4.0000    22.0000    20.7704    41.5152     0.0000    14.4503     7.1973    15.6329     7.200
     25    -0.2600    -0.5199     0.5200      2.874    205.000  57901.000      3.000    41.5367    42.8837   -36.9720   -10.1949   -20.3885    20.0000     5.0000     4.0000    24.0000    22.0000     4.0000     4.0000    22.0000    20.7704    41.5152     0.0000    14.4503     7.1986    15.6334     7.200
     26    -0.2625    -0.5250     0.5250      2.849     23.000  57901.000      3.000    41.5367    42.8837   -36.9720   -10.2943   -20.5885    20.0000     5.0000     4.0000    24.0000    22.0000     4.0000     4.0000    22.0000    20.7704    41.5152     0.0000    14.4503     7.1996    15.6334     7.200
     27    -0.2650    -0.5300     0.5300      2.849      6.000  57901.000      3.000    41.5367    42.8837   -36.9720   -10.3938   -20.7862    20.0000     5.0000     4.0000    24.0000    22.0000     4.0000     4.0000    22.0000    20.7704    41.5152     0.0000    14.4503     7.2014    15.6359     7.200
     28    -0.2675    -0.5350     0.5350      2.869      6.000  57901.000      3.000    41.5367    42.8837   -36.9720   -10.4927   -20.9858    20.0000     5.0000     4.0000    24.0000    22.0000     4.0000     4.0000    22.0000    20.7704    41.5152     0.0000    14.4503     7.2020    15.6363     7.200
     29    -0.2700    -0.5401     0.5401      2.857      5.000  57901.000      3.000    41.5367    42.8837   -36.9720   -10.5913   -21.1866    20.0000     5.0000     4.0000    24.0000    22.0000     4.0000     4.0000    22.0000    20.7704    41.5152     0.0000    14.4503     7.2020    15.6358     7.200
     30    -0.2725    -0.5450     0.5450      2.848      8.000  57901.000      3.000    41.5367    42.8837   -36.9720   -10.6904   -21.3832    20.0000     5.0000     4.0000    24.0000    22.0000     4.0000     4.0000    22.0000    20.7704    41.5152     0.0000    14.4503     7.1998    15.6348     7.200
     31    -0.2750    -0.5499     0.5500      2.847      6.000  57901.000      3.000    41.5367    42.8837   -36.9720   -10.7901   -21.5791    20.0000     5.0000     4.0000    24.0000    22.0000     4.0000     4.0000    22.0000    20.7704    41.5152     0.0000    14.4503     7.1986    15.6342     7.200
     32    -0.2775    -0.5549     0.5549      2.830      8.000  57901.000      3.000    41.5367    42.8837   -36.9720   -10.8896   -21.7759    20.0000     5.0000     4.0000    24.0000    22.0000     4.0000     4.0000    22.0000    20.7704    41.5152     0.0000    14.4503     7.2019    15.6339     7.200
     33    -0.2800    -0.5599     0.5599      2.823      6.000  57901.000      3.000    41.5367    42.8837   -36.9720   -10.9891   -21.9740    20.0000     5.0000     4.0000    24.0000    22.0000     4.0000     4.0000    22.0000    20.7704    41.5152     0.0000    14.4503     7.2024    15.6361     7.200
     34    -0.2825    -0.5650     0.5650      2.852      5.000  57901.000      3.000    41.5367    42.8837   -36.9720   -11.0887   -22.1771    20.0000     5.0000     4.0000    24.0000    22.0000     4.0000     4.0000    22.0000    20.7704    41.5152     0.0000    14.4503     7.2022    15.6366     7.200
     35    -0.2850    -0.5700     0.5700      2.880      6.000  57901.000      3.000    41.5367    42.8837   -36.9720   -11.1878   -22.3762    20.0000     5.0000     4.0000    24.0000    22.0000     4.0000     4.0000    22.0000    20.7704    41.5152     0.0000    14.4503     7.2019    15.6381     7.200
     36    -0.2875    -0.5750     0.5750      2.866      3.000  57901.000      3.000    41.5367    42.8837   -36.9720   -11.2871   -22.5739    20.0000     5.0000     4.0000    24.0000    22.0000     4.0000     4.0000    22.0000    20.7704    41.5152     0.0000    14.4503     7.2007    15.6366     7.200
     37    -0.2900    -0.5801     0.5801      2.861      5.000  57901.000      3.000    41.5367    42.8837   -36.9720   -11.3864   -22.7767    20.0000     5.0000     4.0000    24.0000    22.0000     4.0000     4.0000    22.0000    20.7703    41.5152     0.0000    14.4503     7.2001    15.6354     7.200
     38    -0.2925    -0.5851     0.5851      2.843      7.000  57901.000      3.000    41.5367    42.8837   -36.9720   -11.4855   -22.9766    20.0000     5.0000     4.0000    24.0000    22.0000     4.0000     4.0000    22.0000    20.7704    41.5151     0.0000    14.4503     7.1966    15.6392     7.200
     39    -0.2950    -0.5900     0.5900      2.855      5.000  57901.000      3.000    41.5367    42.8837   -36.9720   -11.5851   -23.1716    20.0000     5.0000     4.0000    24.0000    22.0000     4.0000     4.0000    22.0000    20.7704    41.5152     0.0000    14.4503     7.1984    15.6376     7.200
     40    -0.2975    -0.5950     0.5950      2.865     13.000  57901.000      3.000    41.5367    42.8837   -36.9720   -11.6847   -23.3690    20.0000     5.0000     4.0000    24.0000    22.0000     4.0000     4.0000    22.0000    20.7703    41.5152     0.0000    14.4503     7.1975    15.6385     7.200
     41    -0.3000    -0.5999     0.6000      2.869      7.000  57901.000      3.000    41.5367    42.8837   -36.9720   -11.7846   -23.5680    20.0000     5.0000     4.0000    24.0000    22.0000     4.0000     4.0000    22.0000    20.7703    41.5152     0.0000    14.4503     7.1966    15.6391     7.200
# Sum of Counts = 29337
# Center of Mass = -0.250865+/-0.002071
# Full Width Half-Maximum = 0.008593+/-0.001054
# 5:39:44 PM  2/22/2025   scan completed.
